[{"_id": {"$oid": "5fb192b9ea6f023e87d362cb"}, "created_at": {"$date": 1605472953465}, "abx": [{"a_template_type": "natural", "b_template_type": "synthetic", "stimulus_type": "natural", "stimulus_name": "amu_pl_ilo_BAZA_2006C_C0441.wav", "time_elapsed": 15579, "response_time": 409, "answer": "a", "correct": true, "trial_index": 12}], "mos": [{"stimulus_type": "natural", "stimulus_name": "amu_pl_ilo_BAZA_2006D_D0056.wav", "time_elapsed": 5742, "response_time": 70, "answer": 2, "trial_index": 3}, {"stimulus_type": "synthetic", "stimulus_name": "amu_pl_ilo_BAZA_2006E_E1338.wav", "time_elapsed": 7781, "response_time": 531, "answer": 3, "trial_index": 5}]}, {"_id": {"$oid": "5fb55d9e2d8500a4d92999c3"}, "created_at": {"$date": 1605721502165}, "abx": [{"a_template_type": "synthetic", "b_template_type": "natural", "stimulus_type": "natural", "stimulus_name": "amu_pl_ilo_BAZA_2006D_D0056.wav", "time_elapsed": 62258, "response_time": 1276, "answer": "b", "correct": true, "trial_index": 28}, {"a_template_type": "natural", "b_template_type": "synthetic", "stimulus_type": "natural", "stimulus_name": "amu_pl_ilo_BAZA_2006E_E1211.wav", "time_elapsed": 73937, "response_time": 2305, "answer": "b", "correct": false, "trial_index": 34}, {"a_template_type": "natural", "b_template_type": "synthetic", "stimulus_type": "synthetic", "stimulus_name": "amu_pl_ilo_BAZA_2006C_C0574.wav", "time_elapsed": 84116, "response_time": 1686, "answer": "b", "correct": true, "trial_index": 40}, {"a_template_type": "synthetic", "b_template_type": "natural", "stimulus_type": "natural", "stimulus_name": "amu_pl_ilo_BAZA_2006B_B0025.wav", "time_elapsed": 95128, "response_time": 1917, "answer": "a", "correct": false, "trial_index": 46}, {"a_template_type": "natural", "b_template_type": "synthetic", "stimulus_type": "natural", "stimulus_name": "amu_pl_ilo_BAZA_2006D_D0090a.wav", "time_elapsed": 104843, "response_time": 1457, "answer": "b", "correct": false, "trial_index": 52}, {"a_template_type": "natural", "b_template_type": "synthetic", "stimulus_type": "natural", "stimulus_name": "amu_pl_ilo_BAZA_2006A_zbitki_A0135.wav", "time_elapsed": 119114, "response_time": 2943, "answer": "b", "correct": false, "trial_index": 58}, {"a_template_type": "natural", "b_template_type": "synthetic", "stimulus_type": "synthetic", "stimulus_name": "amu_pl_ilo_BAZA_2006E_E1304.wav", "time_elapsed": 129366, "response_time": 1870, "answer": "b", "correct": true, "trial_index": 64}, {"a_template_type": "natural", "b_template_type": "synthetic", "stimulus_type": "natural", "stimulus_name": "amu_pl_ilo_BAZA_2006C_C0023.wav", "time_elapsed": 139829, "response_time": 1989, "answer": "a", "correct": true, "trial_index": 70}, {"a_template_type": "synthetic", "b_template_type": "natural", "stimulus_type": "natural", "stimulus_name": "amu_pl_ilo_BAZA_2006C_C0313.wav", "time_elapsed": 149208, "response_time": 1496, "answer": "b", "correct": true, "trial_index": 76}, {"a_template_type": "synthetic", "b_template_type": "natural", "stimulus_type": "natural", "stimulus_name": "amu_pl_ilo_BAZA_2006C_C0390.wav", "time_elapsed": 159778, "response_time": 1904, "answer": "b", "correct": true, "trial_index": 82}], "mos": [{"stimulus_type": "natural", "stimulus_name": "amu_pl_ilo_BAZA_2006C_C0173.wav", "time_elapsed": 11912, "response_time": 3310, "answer": 5, "trial_index": 3}, {"stimulus_type": "natural", "stimulus_name": "amu_pl_ilo_BAZA_2006A_zbitki_A0050.wav", "time_elapsed": 16687, "response_time": 3273, "answer": 5, "trial_index": 5}, {"stimulus_type": "synthetic", "stimulus_name": "amu_pl_ilo_BAZA_2006C_C0247.wav", "time_elapsed": 20436, "response_time": 2246, "answer": 5, "trial_index": 7}, {"stimulus_type": "natural", "stimulus_name": "amu_pl_ilo_BAZA_2006C_C0160.wav", "time_elapsed": 23612, "response_time": 1675, "answer": 5, "trial_index": 9}, {"stimulus_type": "synthetic", "stimulus_name": "amu_pl_ilo_BAZA_2006A_zbitki_A0141.wav", "time_elapsed": 31662, "response_time": 6549, "answer": 4, "trial_index": 11}, {"stimulus_type": "synthetic", "stimulus_name": "amu_pl_ilo_BAZA_2006A_zbitki_A0194.wav", "time_elapsed": 36058, "response_time": 2892, "answer": 3, "trial_index": 13}, {"stimulus_type": "natural", "stimulus_name": "amu_pl_ilo_BAZA_2006C_C0092.wav", "time_elapsed": 39393, "response_time": 1833, "answer": 5, "trial_index": 15}, {"stimulus_type": "synthetic", "stimulus_name": "amu_pl_ilo_BAZA_2006C_C0319.wav", "time_elapsed": 43482, "response_time": 2587, "answer": 5, "trial_index": 17}, {"stimulus_type": "synthetic", "stimulus_name": "amu_pl_ilo_BAZA_2006A_zbitki_A0151.wav", "time_elapsed": 47812, "response_time": 2827, "answer": 5, "trial_index": 19}, {"stimulus_type": "natural", "stimulus_name": "amu_pl_ilo_BAZA_2006E_E0951.wav", "time_elapsed": 51840, "response_time": 2526, "answer": 5, "trial_index": 21}]}, {"_id": {"$oid": "5fb55ff02d8500a4d92999c4"}, "created_at": {"$date": 1605722096360}, "abx": [{"a_template_type": "natural", "b_template_type": "synthetic", "stimulus_type": "synthetic", "stimulus_name": "amu_pl_ilo_BAZA_2006C_C0423.wav", "time_elapsed": 66612, "response_time": 856, "answer": "a", "correct": false, "trial_index": 28}, {"a_template_type": "natural", "b_template_type": "synthetic", "stimulus_type": "synthetic", "stimulus_name": "amu_pl_ilo_BAZA_2006D_D0007.wav", "time_elapsed": 77336, "response_time": 672, "answer": "b", "correct": true, "trial_index": 34}, {"a_template_type": "natural", "b_template_type": "synthetic", "stimulus_type": "natural", "stimulus_name": "amu_pl_ilo_BAZA_2006D_D1158.wav", "time_elapsed": 89630, "response_time": 2366, "answer": "b", "correct": false, "trial_index": 40}, {"a_template_type": "synthetic", "b_template_type": "natural", "stimulus_type": "synthetic", "stimulus_name": "amu_pl_ilo_BAZA_2006D_D0056.wav", "time_elapsed": 97364, "response_time": 248, "answer": "b", "correct": false, "trial_index": 46}, {"a_template_type": "synthetic", "b_template_type": "natural", "stimulus_type": "synthetic", "stimulus_name": "amu_pl_ilo_BAZA_2006C_C0580.wav", "time_elapsed": 106151, "response_time": 933, "answer": "b", "correct": false, "trial_index": 52}, {"a_template_type": "natural", "b_template_type": "synthetic", "stimulus_type": "natural", "stimulus_name": "amu_pl_ilo_BAZA_2006A_zbitki_A0248.wav", "time_elapsed": 122419, "response_time": 514, "answer": "b", "correct": false, "trial_index": 58}, {"a_template_type": "synthetic", "b_template_type": "natural", "stimulus_type": "natural", "stimulus_name": "amu_pl_ilo_BAZA_2006C_C0162.wav", "time_elapsed": 131286, "response_time": 117, "answer": "b", "correct": true, "trial_index": 64}, {"a_template_type": "natural", "b_template_type": "synthetic", "stimulus_type": "natural", "stimulus_name": "amu_pl_ilo_BAZA_2006C_C0214.wav", "time_elapsed": 148005, "response_time": 7705, "answer": "a", "correct": true, "trial_index": 70}, {"a_template_type": "natural", "b_template_type": "synthetic", "stimulus_type": "natural", "stimulus_name": "amu_pl_ilo_BAZA_2006C_C0469.wav", "time_elapsed": 157612, "response_time": 904, "answer": "a", "correct": true, "trial_index": 76}, {"a_template_type": "natural", "b_template_type": "synthetic", "stimulus_type": "natural", "stimulus_name": "amu_pl_ilo_BAZA_2006C_C0359.wav", "time_elapsed": 165571, "response_time": 336, "answer": "b", "correct": false, "trial_index": 82}], "mos": [{"stimulus_type": "natural", "stimulus_name": "amu_pl_ilo_BAZA_2006B_B0031.wav", "time_elapsed": 20371, "response_time": 1790, "answer": 1, "trial_index": 3}, {"stimulus_type": "natural", "stimulus_name": "amu_pl_ilo_BAZA_2006A_zbitki_A0135.wav", "time_elapsed": 23231, "response_time": 1358, "answer": 5, "trial_index": 5}, {"stimulus_type": "natural", "stimulus_name": "amu_pl_ilo_BAZA_2006C_C0278.wav", "time_elapsed": 27167, "response_time": 2433, "answer": 2, "trial_index": 7}, {"stimulus_type": "synthetic", "stimulus_name": "amu_pl_ilo_BAZA_2006C_C0359.wav", "time_elapsed": 35332, "response_time": 6665, "answer": 3, "trial_index": 9}, {"stimulus_type": "natural", "stimulus_name": "amu_pl_ilo_BAZA_2006C_C0149.wav", "time_elapsed": 38777, "response_time": 1941, "answer": 1, "trial_index": 11}, {"stimulus_type": "synthetic", "stimulus_name": "amu_pl_ilo_BAZA_2006C_C0234.wav", "time_elapsed": 42834, "response_time": 2555, "answer": 2, "trial_index": 13}, {"stimulus_type": "natural", "stimulus_name": "amu_pl_ilo_BAZA_2006A_zbitki_A0025.wav", "time_elapsed": 47212, "response_time": 2875, "answer": 3, "trial_index": 15}, {"stimulus_type": "synthetic", "stimulus_name": "amu_pl_ilo_BAZA_2006C_C0286.wav", "time_elapsed": 50823, "response_time": 2109, "answer": 3, "trial_index": 17}, {"stimulus_type": "synthetic", "stimulus_name": "amu_pl_ilo_BAZA_2006E_E1244.wav", "time_elapsed": 52953, "response_time": 628, "answer": 5, "trial_index": 19}, {"stimulus_type": "synthetic", "stimulus_name": "amu_pl_ilo_BAZA_2006C_C0496.wav", "time_elapsed": 55118, "response_time": 663, "answer": 1, "trial_index": 21}]}, {"_id": {"$oid": "5fb5633e2d8500a4d92999c5"}, "created_at": {"$date": 1605722942747}, "abx": [{"a_template_type": "natural", "b_template_type": "synthetic", "stimulus_type": "natural", "stimulus_name": "amu_pl_ilo_BAZA_2006E_E1244.wav", "time_elapsed": 200017, "response_time": 6708, "answer": "a", "correct": true, "trial_index": 28}, {"a_template_type": "natural", "b_template_type": "synthetic", "stimulus_type": "synthetic", "stimulus_name": "amu_pl_ilo_BAZA_2006A_zbitki_A0151.wav", "time_elapsed": 213153, "response_time": 3000, "answer": "b", "correct": true, "trial_index": 34}, {"a_template_type": "natural", "b_template_type": "synthetic", "stimulus_type": "natural", "stimulus_name": "amu_pl_ilo_BAZA_2006C_C0184.wav", "time_elapsed": 224637, "response_time": 2738, "answer": "a", "correct": true, "trial_index": 40}, {"a_template_type": "synthetic", "b_template_type": "natural", "stimulus_type": "natural", "stimulus_name": "amu_pl_ilo_BAZA_2006A_zbitki_A0048.wav", "time_elapsed": 243001, "response_time": 4627, "answer": "b", "correct": true, "trial_index": 46}, {"a_template_type": "synthetic", "b_template_type": "natural", "stimulus_type": "natural", "stimulus_name": "amu_pl_ilo_BAZA_2006E_E1211.wav", "time_elapsed": 254720, "response_time": 2239, "answer": "b", "correct": true, "trial_index": 52}, {"a_template_type": "natural", "b_template_type": "synthetic", "stimulus_type": "synthetic", "stimulus_name": "amu_pl_ilo_BAZA_2006A_zbitki_A0104.wav", "time_elapsed": 267322, "response_time": 2602, "answer": "a", "correct": false, "trial_index": 58}, {"a_template_type": "synthetic", "b_template_type": "natural", "stimulus_type": "natural", "stimulus_name": "amu_pl_ilo_BAZA_2006A_zbitki_A0360.wav", "time_elapsed": 278874, "response_time": 2420, "answer": "b", "correct": true, "trial_index": 64}, {"a_template_type": "natural", "b_template_type": "synthetic", "stimulus_type": "natural", "stimulus_name": "amu_pl_ilo_BAZA_2006C_C0281.wav", "time_elapsed": 289051, "response_time": 1872, "answer": "a", "correct": true, "trial_index": 70}, {"a_template_type": "synthetic", "b_template_type": "natural", "stimulus_type": "natural", "stimulus_name": "amu_pl_ilo_BAZA_2006D_D0091.wav", "time_elapsed": 305311, "response_time": 3772, "answer": "b", "correct": true, "trial_index": 76}, {"a_template_type": "natural", "b_template_type": "synthetic", "stimulus_type": "natural", "stimulus_name": "amu_pl_ilo_BAZA_2006A_zbitki_A0135.wav", "time_elapsed": 320233, "response_time": 3458, "answer": "a", "correct": true, "trial_index": 82}], "mos": [{"stimulus_type": "synthetic", "stimulus_name": "amu_pl_ilo_BAZA_2006D_D0021.wav", "time_elapsed": 55006, "response_time": 7636, "answer": 1, "trial_index": 3}, {"stimulus_type": "natural", "stimulus_name": "amu_pl_ilo_BAZA_2006C_C0464.wav", "time_elapsed": 65672, "response_time": 9157, "answer": 3, "trial_index": 5}, {"stimulus_type": "synthetic", "stimulus_name": "amu_pl_ilo_BAZA_2006D_D0023.wav", "time_elapsed": 71871, "response_time": 4695, "answer": 2, "trial_index": 7}, {"stimulus_type": "natural", "stimulus_name": "amu_pl_ilo_BAZA_2006A_zbitki_A0194.wav", "time_elapsed": 76473, "response_time": 3090, "answer": 5, "trial_index": 9}, {"stimulus_type": "natural", "stimulus_name": "amu_pl_ilo_BAZA_2006C_C0233.wav", "time_elapsed": 83711, "response_time": 5729, "answer": 4, "trial_index": 11}, {"stimulus_type": "synthetic", "stimulus_name": "amu_pl_ilo_BAZA_2006C_C0359.wav", "time_elapsed": 87439, "response_time": 2223, "answer": 4, "trial_index": 13}, {"stimulus_type": "synthetic", "stimulus_name": "amu_pl_ilo_BAZA_2006B_B0088.wav", "time_elapsed": 91236, "response_time": 2293, "answer": 3, "trial_index": 15}, {"stimulus_type": "natural", "stimulus_name": "amu_pl_ilo_BAZA_2006C_C0234.wav", "time_elapsed": 99239, "response_time": 6499, "answer": 5, "trial_index": 17}, {"stimulus_type": "natural", "stimulus_name": "amu_pl_ilo_BAZA_2006C_C0149.wav", "time_elapsed": 104079, "response_time": 3336, "answer": 5, "trial_index": 19}, {"stimulus_type": "synthetic", "stimulus_name": "amu_pl_ilo_BAZA_2006D_D0056.wav", "time_elapsed": 107535, "response_time": 1951, "answer": 4, "trial_index": 21}]}, {"_id": {"$oid": "5fb566f22d8500a4d92999c6"}, "created_at": {"$date": 1605723890503}, "abx": [{"a_template_type": "natural", "b_template_type": "synthetic", "stimulus_type": "natural", "stimulus_name": "amu_pl_ilo_BAZA_2006C_C0221.wav", "time_elapsed": 90433, "response_time": 6693, "answer": "a", "correct": true, "trial_index": 28}, {"a_template_type": "natural", "b_template_type": "synthetic", "stimulus_type": "natural", "stimulus_name": "amu_pl_ilo_BAZA_2006C_C0233.wav", "time_elapsed": 105542, "response_time": 5520, "answer": "b", "correct": false, "trial_index": 34}, {"a_template_type": "synthetic", "b_template_type": "natural", "stimulus_type": "natural", "stimulus_name": "amu_pl_ilo_BAZA_2006C_C0110.wav", "time_elapsed": 115738, "response_time": 1969, "answer": "b", "correct": true, "trial_index": 40}, {"a_template_type": "natural", "b_template_type": "synthetic", "stimulus_type": "natural", "stimulus_name": "amu_pl_ilo_BAZA_2006C_C0268.wav", "time_elapsed": 125569, "response_time": 1933, "answer": "a", "correct": true, "trial_index": 46}, {"a_template_type": "synthetic", "b_template_type": "natural", "stimulus_type": "synthetic", "stimulus_name": "amu_pl_ilo_BAZA_2006E_E1396.wav", "time_elapsed": 138815, "response_time": 2851, "answer": "a", "correct": true, "trial_index": 52}, {"a_template_type": "synthetic", "b_template_type": "natural", "stimulus_type": "natural", "stimulus_name": "amu_pl_ilo_BAZA_2006A_zbitki_A0248.wav", "time_elapsed": 160929, "response_time": 6480, "answer": "b", "correct": true, "trial_index": 58}, {"a_template_type": "natural", "b_template_type": "synthetic", "stimulus_type": "natural", "stimulus_name": "amu_pl_ilo_BAZA_2006E_E0860.wav", "time_elapsed": 174429, "response_time": 3049, "answer": "a", "correct": true, "trial_index": 64}, {"a_template_type": "synthetic", "b_template_type": "natural", "stimulus_type": "natural", "stimulus_name": "amu_pl_ilo_BAZA_2006C_C0380.wav", "time_elapsed": 184459, "response_time": 2004, "answer": "b", "correct": true, "trial_index": 70}, {"a_template_type": "synthetic", "b_template_type": "natural", "stimulus_type": "natural", "stimulus_name": "amu_pl_ilo_BAZA_2006C_C0423.wav", "time_elapsed": 194621, "response_time": 2096, "answer": "b", "correct": true, "trial_index": 76}, {"a_template_type": "natural", "b_template_type": "synthetic", "stimulus_type": "natural", "stimulus_name": "amu_pl_ilo_BAZA_2006C_C0278.wav", "time_elapsed": 206491, "response_time": 2795, "answer": "a", "correct": true, "trial_index": 82}], "mos": [{"stimulus_type": "natural", "stimulus_name": "amu_pl_ilo_BAZA_2006C_C0452.wav", "time_elapsed": 10655, "response_time": 6997, "answer": 3, "trial_index": 3}, {"stimulus_type": "synthetic", "stimulus_name": "amu_pl_ilo_BAZA_2006A_zbitki_A0213.wav", "time_elapsed": 16575, "response_time": 4413, "answer": 5, "trial_index": 5}, {"stimulus_type": "natural", "stimulus_name": "amu_pl_ilo_BAZA_2006A_zbitki_A0249.wav", "time_elapsed": 20701, "response_time": 2613, "answer": 5, "trial_index": 7}, {"stimulus_type": "natural", "stimulus_name": "amu_pl_ilo_BAZA_2006A_zbitki_A0166.wav", "time_elapsed": 29375, "response_time": 7164, "answer": 4, "trial_index": 9}, {"stimulus_type": "natural", "stimulus_name": "amu_pl_ilo_BAZA_2006E_E1237.wav", "time_elapsed": 34060, "response_time": 3179, "answer": 5, "trial_index": 11}, {"stimulus_type": "synthetic", "stimulus_name": "amu_pl_ilo_BAZA_2006C_C0608.wav", "time_elapsed": 40700, "response_time": 5128, "answer": 4, "trial_index": 13}, {"stimulus_type": "natural", "stimulus_name": "amu_pl_ilo_BAZA_2006D_D0021.wav", "time_elapsed": 46667, "response_time": 4459, "answer": 4, "trial_index": 15}, {"stimulus_type": "synthetic", "stimulus_name": "amu_pl_ilo_BAZA_2006C_C0441.wav", "time_elapsed": 50305, "response_time": 2124, "answer": 3, "trial_index": 17}, {"stimulus_type": "synthetic", "stimulus_name": "amu_pl_ilo_BAZA_2006E_E1338.wav", "time_elapsed": 56384, "response_time": 4564, "answer": 4, "trial_index": 19}, {"stimulus_type": "synthetic", "stimulus_name": "amu_pl_ilo_BAZA_2006C_C0567.wav", "time_elapsed": 60375, "response_time": 2480, "answer": 5, "trial_index": 21}]}, {"_id": {"$oid": "5fb569cb2d8500a4d92999c7"}, "created_at": {"$date": 1605724619530}, "abx": [{"a_template_type": "natural", "b_template_type": "synthetic", "stimulus_type": "natural", "stimulus_name": "amu_pl_ilo_BAZA_2006C_C0059.wav", "time_elapsed": 123177, "response_time": 1987, "answer": "a", "correct": true, "trial_index": 28}, {"a_template_type": "synthetic", "b_template_type": "natural", "stimulus_type": "natural", "stimulus_name": "amu_pl_ilo_BAZA_2006C_C0214.wav", "time_elapsed": 134040, "response_time": 1887, "answer": "b", "correct": true, "trial_index": 34}, {"a_template_type": "synthetic", "b_template_type": "natural", "stimulus_type": "natural", "stimulus_name": "amu_pl_ilo_BAZA_2006C_C0225.wav", "time_elapsed": 144370, "response_time": 1897, "answer": "b", "correct": true, "trial_index": 40}, {"a_template_type": "natural", "b_template_type": "synthetic", "stimulus_type": "natural", "stimulus_name": "amu_pl_ilo_BAZA_2006D_D1118.wav", "time_elapsed": 154521, "response_time": 1897, "answer": "a", "correct": true, "trial_index": 46}, {"a_template_type": "natural", "b_template_type": "synthetic", "stimulus_type": "synthetic", "stimulus_name": "amu_pl_ilo_BAZA_2006C_C0162.wav", "time_elapsed": 164805, "response_time": 1552, "answer": "b", "correct": true, "trial_index": 52}, {"a_template_type": "natural", "b_template_type": "synthetic", "stimulus_type": "synthetic", "stimulus_name": "amu_pl_ilo_BAZA_2006B_B0072.wav", "time_elapsed": 175708, "response_time": 1312, "answer": "b", "correct": true, "trial_index": 58}, {"a_template_type": "natural", "b_template_type": "synthetic", "stimulus_type": "synthetic", "stimulus_name": "amu_pl_ilo_BAZA_2006D_D0007.wav", "time_elapsed": 187004, "response_time": 1366, "answer": "b", "correct": true, "trial_index": 64}, {"a_template_type": "natural", "b_template_type": "synthetic", "stimulus_type": "synthetic", "stimulus_name": "amu_pl_ilo_BAZA_2006B_B0015.wav", "time_elapsed": 197037, "response_time": 1424, "answer": "b", "correct": true, "trial_index": 70}, {"a_template_type": "synthetic", "b_template_type": "natural", "stimulus_type": "natural", "stimulus_name": "amu_pl_ilo_BAZA_2006C_C0452.wav", "time_elapsed": 207276, "response_time": 1709, "answer": "b", "correct": true, "trial_index": 76}, {"a_template_type": "natural", "b_template_type": "synthetic", "stimulus_type": "natural", "stimulus_name": "amu_pl_ilo_BAZA_2006A_zbitki_A0300.wav", "time_elapsed": 222868, "response_time": 4154, "answer": "b", "correct": false, "trial_index": 82}], "mos": [{"stimulus_type": "synthetic", "stimulus_name": "amu_pl_ilo_BAZA_2006D_D0069.wav", "time_elapsed": 49059, "response_time": 4018, "answer": 3, "trial_index": 3}, {"stimulus_type": "natural", "stimulus_name": "amu_pl_ilo_BAZA_2006C_C0469.wav", "time_elapsed": 54499, "response_time": 3935, "answer": 3, "trial_index": 5}, {"stimulus_type": "natural", "stimulus_name": "amu_pl_ilo_BAZA_2006E_E1227.wav", "time_elapsed": 59686, "response_time": 3666, "answer": 5, "trial_index": 7}, {"stimulus_type": "synthetic", "stimulus_name": "amu_pl_ilo_BAZA_2006C_C0393.wav", "time_elapsed": 64354, "response_time": 3156, "answer": 4, "trial_index": 9}, {"stimulus_type": "natural", "stimulus_name": "amu_pl_ilo_BAZA_2006D_D0069.wav", "time_elapsed": 67937, "response_time": 2051, "answer": 4, "trial_index": 11}, {"stimulus_type": "synthetic", "stimulus_name": "amu_pl_ilo_BAZA_2006C_C0635.wav", "time_elapsed": 73623, "response_time": 4175, "answer": 5, "trial_index": 13}, {"stimulus_type": "synthetic", "stimulus_name": "amu_pl_ilo_BAZA_2006C_C0059.wav", "time_elapsed": 77850, "response_time": 2719, "answer": 5, "trial_index": 15}, {"stimulus_type": "natural", "stimulus_name": "amu_pl_ilo_BAZA_2006D_D0090a.wav", "time_elapsed": 82396, "response_time": 3029, "answer": 4, "trial_index": 17}, {"stimulus_type": "synthetic", "stimulus_name": "amu_pl_ilo_BAZA_2006C_C0097.wav", "time_elapsed": 87052, "response_time": 3151, "answer": 4, "trial_index": 19}, {"stimulus_type": "natural", "stimulus_name": "amu_pl_ilo_BAZA_2006C_C0149.wav", "time_elapsed": 90035, "response_time": 1478, "answer": 5, "trial_index": 21}]}, {"_id": {"$oid": "5fb569fb2d8500a4d92999c8"}, "created_at": {"$date": 1605724667763}, "abx": [{"a_template_type": "synthetic", "b_template_type": "natural", "stimulus_type": "natural", "stimulus_name": "amu_pl_ilo_BAZA_2006C_C0258.wav", "time_elapsed": 181181, "response_time": 5126, "answer": "b", "correct": true, "trial_index": 28}, {"a_template_type": "natural", "b_template_type": "synthetic", "stimulus_type": "natural", "stimulus_name": "amu_pl_ilo_BAZA_2006B_B0025.wav", "time_elapsed": 193151, "response_time": 2991, "answer": "b", "correct": false, "trial_index": 34}, {"a_template_type": "synthetic", "b_template_type": "natural", "stimulus_type": "natural", "stimulus_name": "amu_pl_ilo_BAZA_2006B_B0049.wav", "time_elapsed": 204317, "response_time": 2449, "answer": "b", "correct": true, "trial_index": 40}, {"a_template_type": "synthetic", "b_template_type": "natural", "stimulus_type": "natural", "stimulus_name": "amu_pl_ilo_BAZA_2006C_C0059.wav", "time_elapsed": 215215, "response_time": 2311, "answer": "b", "correct": true, "trial_index": 46}, {"a_template_type": "synthetic", "b_template_type": "natural", "stimulus_type": "synthetic", "stimulus_name": "amu_pl_ilo_BAZA_2006C_C0149.wav", "time_elapsed": 224300, "response_time": 1649, "answer": "a", "correct": true, "trial_index": 52}, {"a_template_type": "natural", "b_template_type": "synthetic", "stimulus_type": "natural", "stimulus_name": "amu_pl_ilo_BAZA_2006C_C0281.wav", "time_elapsed": 234228, "response_time": 1853, "answer": "b", "correct": false, "trial_index": 58}, {"a_template_type": "synthetic", "b_template_type": "natural", "stimulus_type": "natural", "stimulus_name": "amu_pl_ilo_BAZA_2006B_B0088.wav", "time_elapsed": 244009, "response_time": 1773, "answer": "a", "correct": false, "trial_index": 64}, {"a_template_type": "natural", "b_template_type": "synthetic", "stimulus_type": "synthetic", "stimulus_name": "amu_pl_ilo_BAZA_2006E_E1227.wav", "time_elapsed": 258994, "response_time": 3659, "answer": "b", "correct": true, "trial_index": 70}, {"a_template_type": "synthetic", "b_template_type": "natural", "stimulus_type": "synthetic", "stimulus_name": "amu_pl_ilo_BAZA_2006C_C0316.wav", "time_elapsed": 267991, "response_time": 1824, "answer": "b", "correct": false, "trial_index": 76}, {"a_template_type": "synthetic", "b_template_type": "natural", "stimulus_type": "natural", "stimulus_name": "amu_pl_ilo_BAZA_2006E_E1333.wav", "time_elapsed": 280813, "response_time": 2783, "answer": "b", "correct": true, "trial_index": 82}], "mos": [{"stimulus_type": "synthetic", "stimulus_name": "amu_pl_ilo_BAZA_2006B_B0049.wav", "time_elapsed": 66945, "response_time": 9453, "answer": 2, "trial_index": 3}, {"stimulus_type": "synthetic", "stimulus_name": "amu_pl_ilo_BAZA_2006D_D0098a.wav", "time_elapsed": 83010, "response_time": 14557, "answer": 4, "trial_index": 5}, {"stimulus_type": "synthetic", "stimulus_name": "amu_pl_ilo_BAZA_2006C_C0271.wav", "time_elapsed": 89050, "response_time": 4528, "answer": 4, "trial_index": 7}, {"stimulus_type": "synthetic", "stimulus_name": "amu_pl_ilo_BAZA_2006C_C0580.wav", "time_elapsed": 106477, "response_time": 15917, "answer": 5, "trial_index": 9}, {"stimulus_type": "natural", "stimulus_name": "amu_pl_ilo_BAZA_2006C_C0023.wav", "time_elapsed": 110755, "response_time": 2769, "answer": 5, "trial_index": 11}, {"stimulus_type": "natural", "stimulus_name": "amu_pl_ilo_BAZA_2006E_E1005.wav", "time_elapsed": 115997, "response_time": 3730, "answer": 5, "trial_index": 13}, {"stimulus_type": "natural", "stimulus_name": "amu_pl_ilo_BAZA_2006E_E0985.wav", "time_elapsed": 120202, "response_time": 2693, "answer": 5, "trial_index": 15}, {"stimulus_type": "natural", "stimulus_name": "amu_pl_ilo_BAZA_2006E_E0920.wav", "time_elapsed": 124142, "response_time": 2429, "answer": 5, "trial_index": 17}, {"stimulus_type": "synthetic", "stimulus_name": "amu_pl_ilo_BAZA_2006E_E1388.wav", "time_elapsed": 129041, "response_time": 3386, "answer": 5, "trial_index": 19}, {"stimulus_type": "natural", "stimulus_name": "amu_pl_ilo_BAZA_2006C_C0214.wav", "time_elapsed": 135338, "response_time": 4787, "answer": 5, "trial_index": 21}]}, {"_id": {"$oid": "5fb56c672d8500a4d92999c9"}, "created_at": {"$date": 1605725287996}, "abx": [{"a_template_type": "natural", "b_template_type": "synthetic", "stimulus_type": "natural", "stimulus_name": "amu_pl_ilo_BAZA_2006E_E1304.wav", "time_elapsed": 144948, "response_time": 1929, "answer": "a", "correct": true, "trial_index": 28}, {"a_template_type": "natural", "b_template_type": "synthetic", "stimulus_type": "synthetic", "stimulus_name": "amu_pl_ilo_BAZA_2006A_zbitki_A0213.wav", "time_elapsed": 159222, "response_time": 3233, "answer": "b", "correct": true, "trial_index": 34}, {"a_template_type": "synthetic", "b_template_type": "natural", "stimulus_type": "synthetic", "stimulus_name": "amu_pl_ilo_BAZA_2006A_zbitki_A0198.wav", "time_elapsed": 174101, "response_time": 3206, "answer": "a", "correct": true, "trial_index": 40}, {"a_template_type": "natural", "b_template_type": "synthetic", "stimulus_type": "natural", "stimulus_name": "amu_pl_ilo_BAZA_2006C_C0083.wav", "time_elapsed": 183745, "response_time": 1819, "answer": "a", "correct": true, "trial_index": 46}, {"a_template_type": "synthetic", "b_template_type": "natural", "stimulus_type": "natural", "stimulus_name": "amu_pl_ilo_BAZA_2006C_C0225.wav", "time_elapsed": 194984, "response_time": 2899, "answer": "a", "correct": false, "trial_index": 52}, {"a_template_type": "synthetic", "b_template_type": "natural", "stimulus_type": "natural", "stimulus_name": "amu_pl_ilo_BAZA_2006B_B0025.wav", "time_elapsed": 206632, "response_time": 2664, "answer": "b", "correct": true, "trial_index": 58}, {"a_template_type": "synthetic", "b_template_type": "natural", "stimulus_type": "natural", "stimulus_name": "amu_pl_ilo_BAZA_2006C_C0469.wav", "time_elapsed": 217387, "response_time": 2161, "answer": "b", "correct": true, "trial_index": 64}, {"a_template_type": "synthetic", "b_template_type": "natural", "stimulus_type": "natural", "stimulus_name": "amu_pl_ilo_BAZA_2006E_E1044.wav", "time_elapsed": 231233, "response_time": 3462, "answer": "a", "correct": false, "trial_index": 70}, {"a_template_type": "natural", "b_template_type": "synthetic", "stimulus_type": "synthetic", "stimulus_name": "amu_pl_ilo_BAZA_2006C_C0142.wav", "time_elapsed": 242882, "response_time": 3012, "answer": "b", "correct": true, "trial_index": 76}, {"a_template_type": "natural", "b_template_type": "synthetic", "stimulus_type": "natural", "stimulus_name": "amu_pl_ilo_BAZA_2006D_D0096.wav", "time_elapsed": 254877, "response_time": 2762, "answer": "a", "correct": true, "trial_index": 82}], "mos": [{"stimulus_type": "natural", "stimulus_name": "amu_pl_ilo_BAZA_2006E_E1334.wav", "time_elapsed": 71123, "response_time": 6382, "answer": 4, "trial_index": 3}, {"stimulus_type": "natural", "stimulus_name": "amu_pl_ilo_BAZA_2006C_C0142.wav", "time_elapsed": 76915, "response_time": 4278, "answer": 4, "trial_index": 5}, {"stimulus_type": "natural", "stimulus_name": "amu_pl_ilo_BAZA_2006C_C0319.wav", "time_elapsed": 81520, "response_time": 3096, "answer": 3, "trial_index": 7}, {"stimulus_type": "synthetic", "stimulus_name": "amu_pl_ilo_BAZA_2006A_zbitki_A0025.wav", "time_elapsed": 87452, "response_time": 4418, "answer": 2, "trial_index": 9}, {"stimulus_type": "synthetic", "stimulus_name": "amu_pl_ilo_BAZA_2006D_D0100.wav", "time_elapsed": 92660, "response_time": 3696, "answer": 3, "trial_index": 11}, {"stimulus_type": "synthetic", "stimulus_name": "amu_pl_ilo_BAZA_2006D_D1142a.wav", "time_elapsed": 96560, "response_time": 2390, "answer": 4, "trial_index": 13}, {"stimulus_type": "natural", "stimulus_name": "amu_pl_ilo_BAZA_2006E_E1031.wav", "time_elapsed": 101489, "response_time": 3416, "answer": 5, "trial_index": 15}, {"stimulus_type": "natural", "stimulus_name": "amu_pl_ilo_BAZA_2006C_C0519.wav", "time_elapsed": 105566, "response_time": 2564, "answer": 5, "trial_index": 17}, {"stimulus_type": "synthetic", "stimulus_name": "amu_pl_ilo_BAZA_2006C_C0234.wav", "time_elapsed": 110021, "response_time": 2951, "answer": 4, "trial_index": 19}, {"stimulus_type": "synthetic", "stimulus_name": "amu_pl_ilo_BAZA_2006C_C0149.wav", "time_elapsed": 114099, "response_time": 2564, "answer": 5, "trial_index": 21}]}, {"_id": {"$oid": "5fb57e882d8500a4d92999ca"}, "created_at": {"$date": 1605729928175}, "abx": [{"a_template_type": "synthetic", "b_template_type": "natural", "stimulus_type": "natural", "stimulus_name": "amu_pl_ilo_BAZA_2006A_zbitki_A0173.wav", "time_elapsed": 768600, "response_time": 4286, "answer": "b", "correct": true, "trial_index": 28}, {"a_template_type": "synthetic", "b_template_type": "natural", "stimulus_type": "natural", "stimulus_name": "amu_pl_ilo_BAZA_2006A_zbitki_A0107.wav", "time_elapsed": 783301, "response_time": 2091, "answer": "b", "correct": true, "trial_index": 34}, {"a_template_type": "natural", "b_template_type": "synthetic", "stimulus_type": "natural", "stimulus_name": "amu_pl_ilo_BAZA_2006C_C0575.wav", "time_elapsed": 792189, "response_time": 1533, "answer": "a", "correct": true, "trial_index": 40}, {"a_template_type": "synthetic", "b_template_type": "natural", "stimulus_type": "natural", "stimulus_name": "amu_pl_ilo_BAZA_2006A_zbitki_A0036.wav", "time_elapsed": 803612, "response_time": 1500, "answer": "b", "correct": true, "trial_index": 46}, {"a_template_type": "synthetic", "b_template_type": "natural", "stimulus_type": "synthetic", "stimulus_name": "amu_pl_ilo_BAZA_2006D_D1142a.wav", "time_elapsed": 812737, "response_time": 1302, "answer": "a", "correct": true, "trial_index": 52}, {"a_template_type": "natural", "b_template_type": "synthetic", "stimulus_type": "natural", "stimulus_name": "amu_pl_ilo_BAZA_2006D_D0100.wav", "time_elapsed": 825712, "response_time": 2288, "answer": "a", "correct": true, "trial_index": 58}, {"a_template_type": "synthetic", "b_template_type": "natural", "stimulus_type": "natural", "stimulus_name": "amu_pl_ilo_BAZA_2006E_E1227.wav", "time_elapsed": 838468, "response_time": 1435, "answer": "b", "correct": true, "trial_index": 64}, {"a_template_type": "synthetic", "b_template_type": "natural", "stimulus_type": "natural", "stimulus_name": "amu_pl_ilo_BAZA_2006E_E1400.wav", "time_elapsed": 853488, "response_time": 3312, "answer": "a", "correct": false, "trial_index": 70}, {"a_template_type": "synthetic", "b_template_type": "natural", "stimulus_type": "synthetic", "stimulus_name": "amu_pl_ilo_BAZA_2006E_E1278.wav", "time_elapsed": 865795, "response_time": 1751, "answer": "a", "correct": true, "trial_index": 76}, {"a_template_type": "natural", "b_template_type": "synthetic", "stimulus_type": "natural", "stimulus_name": "amu_pl_ilo_BAZA_2006C_C0393.wav", "time_elapsed": 876240, "response_time": 1721, "answer": "a", "correct": true, "trial_index": 82}], "mos": [{"stimulus_type": "synthetic", "stimulus_name": "amu_pl_ilo_BAZA_2006E_E1088.wav", "time_elapsed": 650943, "response_time": 4674, "answer": 1, "trial_index": 3}, {"stimulus_type": "natural", "stimulus_name": "amu_pl_ilo_BAZA_2006C_C0432.wav", "time_elapsed": 658495, "response_time": 6037, "answer": 4, "trial_index": 5}, {"stimulus_type": "synthetic", "stimulus_name": "amu_pl_ilo_BAZA_2006C_C0401.wav", "time_elapsed": 662526, "response_time": 2520, "answer": 2, "trial_index": 7}, {"stimulus_type": "natural", "stimulus_name": "amu_pl_ilo_BAZA_2006E_E0961.wav", "time_elapsed": 671270, "response_time": 7232, "answer": 5, "trial_index": 9}, {"stimulus_type": "natural", "stimulus_name": "amu_pl_ilo_BAZA_2006C_C0500.wav", "time_elapsed": 675757, "response_time": 2973, "answer": 4, "trial_index": 11}, {"stimulus_type": "natural", "stimulus_name": "amu_pl_ilo_BAZA_2006C_C0604.wav", "time_elapsed": 681192, "response_time": 3924, "answer": 5, "trial_index": 13}, {"stimulus_type": "natural", "stimulus_name": "amu_pl_ilo_BAZA_2006C_C0316.wav", "time_elapsed": 687952, "response_time": 5247, "answer": 4, "trial_index": 15}, {"stimulus_type": "synthetic", "stimulus_name": "amu_pl_ilo_BAZA_2006C_C0089.wav", "time_elapsed": 696715, "response_time": 7254, "answer": 3, "trial_index": 17}, {"stimulus_type": "synthetic", "stimulus_name": "amu_pl_ilo_BAZA_2006B_B0049.wav", "time_elapsed": 700696, "response_time": 2468, "answer": 2, "trial_index": 19}, {"stimulus_type": "synthetic", "stimulus_name": "amu_pl_ilo_BAZA_2006A_zbitki_A0135.wav", "time_elapsed": 706130, "response_time": 3924, "answer": 2, "trial_index": 21}]}, {"_id": {"$oid": "5fb581d62d8500a4d92999cb"}, "created_at": {"$date": 1605730774027}, "abx": [{"a_template_type": "natural", "b_template_type": "synthetic", "stimulus_type": "natural", "stimulus_name": "amu_pl_ilo_BAZA_2006E_E1158.wav", "time_elapsed": 1004422, "response_time": 6588, "answer": "b", "correct": false, "trial_index": 28}, {"a_template_type": "natural", "b_template_type": "synthetic", "stimulus_type": "synthetic", "stimulus_name": "amu_pl_ilo_BAZA_2006D_D0023.wav", "time_elapsed": 1019993, "response_time": 5125, "answer": "b", "correct": true, "trial_index": 34}, {"a_template_type": "synthetic", "b_template_type": "natural", "stimulus_type": "synthetic", "stimulus_name": "amu_pl_ilo_BAZA_2006A_zbitki_A0048.wav", "time_elapsed": 1041001, "response_time": 7508, "answer": "b", "correct": false, "trial_index": 40}, {"a_template_type": "synthetic", "b_template_type": "natural", "stimulus_type": "synthetic", "stimulus_name": "amu_pl_ilo_BAZA_2006A_zbitki_A0174.wav", "time_elapsed": 1062306, "response_time": 9839, "answer": "b", "correct": false, "trial_index": 46}, {"a_template_type": "natural", "b_template_type": "synthetic", "stimulus_type": "natural", "stimulus_name": "amu_pl_ilo_BAZA_2006D_D1164.wav", "time_elapsed": 1079103, "response_time": 4954, "answer": "a", "correct": true, "trial_index": 52}, {"a_template_type": "natural", "b_template_type": "synthetic", "stimulus_type": "natural", "stimulus_name": "amu_pl_ilo_BAZA_2006D_D0021.wav", "time_elapsed": 1090740, "response_time": 3224, "answer": "a", "correct": true, "trial_index": 58}, {"a_template_type": "synthetic", "b_template_type": "natural", "stimulus_type": "synthetic", "stimulus_name": "amu_pl_ilo_BAZA_2006E_E0961.wav", "time_elapsed": 1104112, "response_time": 3467, "answer": "a", "correct": true, "trial_index": 64}, {"a_template_type": "natural", "b_template_type": "synthetic", "stimulus_type": "synthetic", "stimulus_name": "amu_pl_ilo_BAZA_2006C_C0247.wav", "time_elapsed": 1117080, "response_time": 4567, "answer": "a", "correct": false, "trial_index": 70}, {"a_template_type": "synthetic", "b_template_type": "natural", "stimulus_type": "synthetic", "stimulus_name": "amu_pl_ilo_BAZA_2006E_E1023.wav", "time_elapsed": 1131479, "response_time": 3330, "answer": "a", "correct": true, "trial_index": 76}, {"a_template_type": "synthetic", "b_template_type": "natural", "stimulus_type": "natural", "stimulus_name": "amu_pl_ilo_BAZA_2006E_E1227.wav", "time_elapsed": 1146466, "response_time": 3674, "answer": "a", "correct": false, "trial_index": 82}], "mos": [{"stimulus_type": "natural", "stimulus_name": "amu_pl_ilo_BAZA_2006C_C0635.wav", "time_elapsed": 118726, "response_time": 13809, "answer": 3, "trial_index": 3}, {"stimulus_type": "synthetic", "stimulus_name": "amu_pl_ilo_BAZA_2006D_D1142a.wav", "time_elapsed": 124769, "response_time": 4512, "answer": 4, "trial_index": 5}, {"stimulus_type": "synthetic", "stimulus_name": "amu_pl_ilo_BAZA_2006A_zbitki_A0263.wav", "time_elapsed": 133964, "response_time": 7667, "answer": 2, "trial_index": 7}, {"stimulus_type": "synthetic", "stimulus_name": "amu_pl_ilo_BAZA_2006C_C0479.wav", "time_elapsed": 139826, "response_time": 4341, "answer": 5, "trial_index": 9}, {"stimulus_type": "synthetic", "stimulus_name": "amu_pl_ilo_BAZA_2006C_C0059.wav", "time_elapsed": 146036, "response_time": 4689, "answer": 5, "trial_index": 11}, {"stimulus_type": "natural", "stimulus_name": "amu_pl_ilo_BAZA_2006D_D0005.wav", "time_elapsed": 150786, "response_time": 3226, "answer": 5, "trial_index": 13}, {"stimulus_type": "synthetic", "stimulus_name": "amu_pl_ilo_BAZA_2006A_zbitki_A0244.wav", "time_elapsed": 160924, "response_time": 8606, "answer": 5, "trial_index": 15}, {"stimulus_type": "natural", "stimulus_name": "amu_pl_ilo_BAZA_2006E_E1138.wav", "time_elapsed": 166060, "response_time": 3618, "answer": 5, "trial_index": 17}, {"stimulus_type": "natural", "stimulus_name": "amu_pl_ilo_BAZA_2006E_E1128.wav", "time_elapsed": 170615, "response_time": 3033, "answer": 5, "trial_index": 19}, {"stimulus_type": "natural", "stimulus_name": "amu_pl_ilo_BAZA_2006E_E0860.wav", "time_elapsed": 177444, "response_time": 5299, "answer": 5, "trial_index": 21}]}, {"_id": {"$oid": "5fb583692d8500a4d92999cc"}, "created_at": {"$date": 1605731177170}, "abx": [{"a_template_type": "synthetic", "b_template_type": "natural", "stimulus_type": "natural", "stimulus_name": "amu_pl_ilo_BAZA_2006E_E1244.wav", "time_elapsed": 342477, "response_time": 5491, "answer": "b", "correct": true, "trial_index": 28}, {"a_template_type": "natural", "b_template_type": "synthetic", "stimulus_type": "synthetic", "stimulus_name": "amu_pl_ilo_BAZA_2006C_C0003.wav", "time_elapsed": 352871, "response_time": 2951, "answer": "b", "correct": true, "trial_index": 34}, {"a_template_type": "natural", "b_template_type": "synthetic", "stimulus_type": "natural", "stimulus_name": "amu_pl_ilo_BAZA_2006E_E1088.wav", "time_elapsed": 365949, "response_time": 3304, "answer": "a", "correct": true, "trial_index": 40}, {"a_template_type": "natural", "b_template_type": "synthetic", "stimulus_type": "synthetic", "stimulus_name": "amu_pl_ilo_BAZA_2006E_E1211.wav", "time_elapsed": 382176, "response_time": 6435, "answer": "b", "correct": true, "trial_index": 46}, {"a_template_type": "natural", "b_template_type": "synthetic", "stimulus_type": "natural", "stimulus_name": "amu_pl_ilo_BAZA_2006C_C0390.wav", "time_elapsed": 394614, "response_time": 3361, "answer": "a", "correct": true, "trial_index": 52}, {"a_template_type": "synthetic", "b_template_type": "natural", "stimulus_type": "natural", "stimulus_name": "amu_pl_ilo_BAZA_2006E_E1179a.wav", "time_elapsed": 408979, "response_time": 3330, "answer": "b", "correct": true, "trial_index": 58}, {"a_template_type": "natural", "b_template_type": "synthetic", "stimulus_type": "natural", "stimulus_name": "amu_pl_ilo_BAZA_2006C_C0171.wav", "time_elapsed": 419756, "response_time": 2194, "answer": "b", "correct": false, "trial_index": 64}, {"a_template_type": "natural", "b_template_type": "synthetic", "stimulus_type": "natural", "stimulus_name": "amu_pl_ilo_BAZA_2006D_D0056.wav", "time_elapsed": 429644, "response_time": 2004, "answer": "a", "correct": true, "trial_index": 70}, {"a_template_type": "synthetic", "b_template_type": "natural", "stimulus_type": "synthetic", "stimulus_name": "amu_pl_ilo_BAZA_2006C_C0189.wav", "time_elapsed": 440680, "response_time": 2170, "answer": "a", "correct": true, "trial_index": 76}, {"a_template_type": "synthetic", "b_template_type": "natural", "stimulus_type": "synthetic", "stimulus_name": "amu_pl_ilo_BAZA_2006C_C0610.wav", "time_elapsed": 453314, "response_time": 2754, "answer": "b", "correct": false, "trial_index": 82}], "mos": [{"stimulus_type": "natural", "stimulus_name": "amu_pl_ilo_BAZA_2006C_C0519.wav", "time_elapsed": 248348, "response_time": 5843, "answer": 3, "trial_index": 3}, {"stimulus_type": "natural", "stimulus_name": "amu_pl_ilo_BAZA_2006D_D0007.wav", "time_elapsed": 259740, "response_time": 9879, "answer": 4, "trial_index": 5}, {"stimulus_type": "natural", "stimulus_name": "amu_pl_ilo_BAZA_2006C_C0051.wav", "time_elapsed": 265338, "response_time": 4088, "answer": 5, "trial_index": 7}, {"stimulus_type": "synthetic", "stimulus_name": "amu_pl_ilo_BAZA_2006E_E1334.wav", "time_elapsed": 272987, "response_time": 6135, "answer": 4, "trial_index": 9}, {"stimulus_type": "natural", "stimulus_name": "amu_pl_ilo_BAZA_2006E_E1338.wav", "time_elapsed": 278773, "response_time": 4273, "answer": 5, "trial_index": 11}, {"stimulus_type": "synthetic", "stimulus_name": "amu_pl_ilo_BAZA_2006D_D1147.wav", "time_elapsed": 285082, "response_time": 4802, "answer": 4, "trial_index": 13}, {"stimulus_type": "natural", "stimulus_name": "amu_pl_ilo_BAZA_2006A_zbitki_A0300.wav", "time_elapsed": 290810, "response_time": 4215, "answer": 5, "trial_index": 15}, {"stimulus_type": "synthetic", "stimulus_name": "amu_pl_ilo_BAZA_2006D_D1096.wav", "time_elapsed": 295589, "response_time": 3266, "answer": 2, "trial_index": 17}, {"stimulus_type": "synthetic", "stimulus_name": "amu_pl_ilo_BAZA_2006D_D0051.wav", "time_elapsed": 300624, "response_time": 3524, "answer": 5, "trial_index": 19}, {"stimulus_type": "synthetic", "stimulus_name": "amu_pl_ilo_BAZA_2006C_C0423.wav", "time_elapsed": 309949, "response_time": 7813, "answer": 5, "trial_index": 21}]}, {"_id": {"$oid": "5fb5866f2d8500a4d92999cd"}, "created_at": {"$date": 1605731951007}, "abx": [{"a_template_type": "natural", "b_template_type": "synthetic", "stimulus_type": "natural", "stimulus_name": "amu_pl_ilo_BAZA_2006E_E0920.wav", "time_elapsed": 222932, "response_time": 5242, "answer": "b", "correct": false, "trial_index": 28}, {"a_template_type": "synthetic", "b_template_type": "natural", "stimulus_type": "synthetic", "stimulus_name": "amu_pl_ilo_BAZA_2006C_C0568.wav", "time_elapsed": 230469, "response_time": 450, "answer": "b", "correct": false, "trial_index": 34}, {"a_template_type": "natural", "b_template_type": "synthetic", "stimulus_type": "natural", "stimulus_name": "amu_pl_ilo_BAZA_2006C_C0216.wav", "time_elapsed": 257183, "response_time": 19413, "answer": "b", "correct": false, "trial_index": 40}, {"a_template_type": "synthetic", "b_template_type": "natural", "stimulus_type": "synthetic", "stimulus_name": "amu_pl_ilo_BAZA_2006C_C0092.wav", "time_elapsed": 272022, "response_time": 7184, "answer": "b", "correct": false, "trial_index": 46}, {"a_template_type": "synthetic", "b_template_type": "natural", "stimulus_type": "synthetic", "stimulus_name": "amu_pl_ilo_BAZA_2006A_zbitki_A0151.wav", "time_elapsed": 286177, "response_time": 4249, "answer": "b", "correct": false, "trial_index": 52}, {"a_template_type": "natural", "b_template_type": "synthetic", "stimulus_type": "natural", "stimulus_name": "amu_pl_ilo_BAZA_2006D_D0096.wav", "time_elapsed": 304484, "response_time": 9083, "answer": "b", "correct": false, "trial_index": 58}, {"a_template_type": "natural", "b_template_type": "synthetic", "stimulus_type": "synthetic", "stimulus_name": "amu_pl_ilo_BAZA_2006E_E1005.wav", "time_elapsed": 316549, "response_time": 101, "answer": "a", "correct": false, "trial_index": 64}, {"a_template_type": "natural", "b_template_type": "synthetic", "stimulus_type": "synthetic", "stimulus_name": "amu_pl_ilo_BAZA_2006D_D0098a.wav", "time_elapsed": 335561, "response_time": 9744, "answer": "b", "correct": true, "trial_index": 70}, {"a_template_type": "synthetic", "b_template_type": "natural", "stimulus_type": "natural", "stimulus_name": "amu_pl_ilo_BAZA_2006E_E0968.wav", "time_elapsed": 352893, "response_time": 5526, "answer": "a", "correct": false, "trial_index": 76}, {"a_template_type": "synthetic", "b_template_type": "natural", "stimulus_type": "natural", "stimulus_name": "amu_pl_ilo_BAZA_2006B_B0088.wav", "time_elapsed": 364011, "response_time": 3095, "answer": "b", "correct": true, "trial_index": 82}], "mos": [{"stimulus_type": "synthetic", "stimulus_name": "amu_pl_ilo_BAZA_2006E_E1005.wav", "time_elapsed": 120131, "response_time": 7411, "answer": 5, "trial_index": 3}, {"stimulus_type": "synthetic", "stimulus_name": "amu_pl_ilo_BAZA_2006E_E1014.wav", "time_elapsed": 127580, "response_time": 5915, "answer": 5, "trial_index": 5}, {"stimulus_type": "natural", "stimulus_name": "amu_pl_ilo_BAZA_2006D_D0090a.wav", "time_elapsed": 137351, "response_time": 8264, "answer": 5, "trial_index": 7}, {"stimulus_type": "synthetic", "stimulus_name": "amu_pl_ilo_BAZA_2006E_E1248.wav", "time_elapsed": 144422, "response_time": 5545, "answer": 5, "trial_index": 9}, {"stimulus_type": "natural", "stimulus_name": "amu_pl_ilo_BAZA_2006C_C0536.wav", "time_elapsed": 149144, "response_time": 3197, "answer": 5, "trial_index": 11}, {"stimulus_type": "natural", "stimulus_name": "amu_pl_ilo_BAZA_2006C_C0225.wav", "time_elapsed": 154614, "response_time": 3948, "answer": 5, "trial_index": 13}, {"stimulus_type": "synthetic", "stimulus_name": "amu_pl_ilo_BAZA_2006A_zbitki_A0141.wav", "time_elapsed": 161855, "response_time": 5718, "answer": 5, "trial_index": 15}, {"stimulus_type": "natural", "stimulus_name": "amu_pl_ilo_BAZA_2006C_C0393.wav", "time_elapsed": 167280, "response_time": 3903, "answer": 5, "trial_index": 17}, {"stimulus_type": "synthetic", "stimulus_name": "amu_pl_ilo_BAZA_2006E_E0951.wav", "time_elapsed": 174534, "response_time": 5728, "answer": 5, "trial_index": 19}, {"stimulus_type": "natural", "stimulus_name": "amu_pl_ilo_BAZA_2006A_zbitki_A0151.wav", "time_elapsed": 180662, "response_time": 4617, "answer": 5, "trial_index": 21}]}, {"_id": {"$oid": "5fb588032d8500a4d92999ce"}, "created_at": {"$date": 1605732355815}, "abx": [{"a_template_type": "synthetic", "b_template_type": "natural", "stimulus_type": "natural", "stimulus_name": "amu_pl_ilo_BAZA_2006C_C0319.wav", "time_elapsed": 135456, "response_time": 4296, "answer": "b", "correct": true, "trial_index": 28}, {"a_template_type": "natural", "b_template_type": "synthetic", "stimulus_type": "natural", "stimulus_name": "amu_pl_ilo_BAZA_2006C_C0256.wav", "time_elapsed": 149275, "response_time": 6138, "answer": "b", "correct": false, "trial_index": 34}, {"a_template_type": "synthetic", "b_template_type": "natural", "stimulus_type": "natural", "stimulus_name": "amu_pl_ilo_BAZA_2006A_zbitki_A0213.wav", "time_elapsed": 162786, "response_time": 2440, "answer": "b", "correct": true, "trial_index": 40}, {"a_template_type": "synthetic", "b_template_type": "natural", "stimulus_type": "synthetic", "stimulus_name": "amu_pl_ilo_BAZA_2006A_zbitki_A0327.wav", "time_elapsed": 178989, "response_time": 3442, "answer": "a", "correct": true, "trial_index": 46}, {"a_template_type": "synthetic", "b_template_type": "natural", "stimulus_type": "synthetic", "stimulus_name": "amu_pl_ilo_BAZA_2006E_E1179a.wav", "time_elapsed": 191148, "response_time": 1591, "answer": "a", "correct": true, "trial_index": 52}, {"a_template_type": "synthetic", "b_template_type": "natural", "stimulus_type": "natural", "stimulus_name": "amu_pl_ilo_BAZA_2006A_zbitki_A0048.wav", "time_elapsed": 206220, "response_time": 1434, "answer": "b", "correct": true, "trial_index": 58}, {"a_template_type": "synthetic", "b_template_type": "natural", "stimulus_type": "natural", "stimulus_name": "amu_pl_ilo_BAZA_2006E_E0948.wav", "time_elapsed": 223767, "response_time": 4271, "answer": "b", "correct": true, "trial_index": 64}, {"a_template_type": "synthetic", "b_template_type": "natural", "stimulus_type": "natural", "stimulus_name": "amu_pl_ilo_BAZA_2006C_C0015.wav", "time_elapsed": 232989, "response_time": 1704, "answer": "b", "correct": true, "trial_index": 70}, {"a_template_type": "natural", "b_template_type": "synthetic", "stimulus_type": "synthetic", "stimulus_name": "amu_pl_ilo_BAZA_2006D_D0069.wav", "time_elapsed": 242485, "response_time": 1269, "answer": "b", "correct": true, "trial_index": 76}, {"a_template_type": "natural", "b_template_type": "synthetic", "stimulus_type": "synthetic", "stimulus_name": "amu_pl_ilo_BAZA_2006E_E1237.wav", "time_elapsed": 254608, "response_time": 2062, "answer": "b", "correct": true, "trial_index": 82}], "mos": [{"stimulus_type": "synthetic", "stimulus_name": "amu_pl_ilo_BAZA_2006C_C0393.wav", "time_elapsed": 45800, "response_time": 10628, "answer": 1, "trial_index": 3}, {"stimulus_type": "synthetic", "stimulus_name": "amu_pl_ilo_BAZA_2006C_C0635.wav", "time_elapsed": 55107, "response_time": 7776, "answer": 2, "trial_index": 5}, {"stimulus_type": "natural", "stimulus_name": "amu_pl_ilo_BAZA_2006C_C0092.wav", "time_elapsed": 59518, "response_time": 2855, "answer": 4, "trial_index": 7}, {"stimulus_type": "synthetic", "stimulus_name": "amu_pl_ilo_BAZA_2006E_E1005.wav", "time_elapsed": 64679, "response_time": 3616, "answer": 3, "trial_index": 9}, {"stimulus_type": "natural", "stimulus_name": "amu_pl_ilo_BAZA_2006C_C0189.wav", "time_elapsed": 72103, "response_time": 5880, "answer": 4, "trial_index": 11}, {"stimulus_type": "synthetic", "stimulus_name": "amu_pl_ilo_BAZA_2006E_E0961.wav", "time_elapsed": 77121, "response_time": 3488, "answer": 4, "trial_index": 13}, {"stimulus_type": "natural", "stimulus_name": "amu_pl_ilo_BAZA_2006D_D0098a.wav", "time_elapsed": 81848, "response_time": 3203, "answer": 5, "trial_index": 15}, {"stimulus_type": "natural", "stimulus_name": "amu_pl_ilo_BAZA_2006C_C0635.wav", "time_elapsed": 86741, "response_time": 3357, "answer": 2, "trial_index": 17}, {"stimulus_type": "synthetic", "stimulus_name": "amu_pl_ilo_BAZA_2006C_C0469.wav", "time_elapsed": 90547, "response_time": 2283, "answer": 1, "trial_index": 19}, {"stimulus_type": "natural", "stimulus_name": "amu_pl_ilo_BAZA_2006A_zbitki_A0194.wav", "time_elapsed": 94377, "response_time": 2285, "answer": 5, "trial_index": 21}]}, {"_id": {"$oid": "5fb58c802d8500a4d92999cf"}, "created_at": {"$date": 1605733504906}, "abx": [{"a_template_type": "synthetic", "b_template_type": "natural", "stimulus_type": "synthetic", "stimulus_name": "amu_pl_ilo_BAZA_2006E_E0951.wav", "time_elapsed": 111011, "response_time": 2846, "answer": "a", "correct": true, "trial_index": 28}, {"a_template_type": "natural", "b_template_type": "synthetic", "stimulus_type": "synthetic", "stimulus_name": "amu_pl_ilo_BAZA_2006E_E1088.wav", "time_elapsed": 125146, "response_time": 4732, "answer": "b", "correct": true, "trial_index": 34}, {"a_template_type": "natural", "b_template_type": "synthetic", "stimulus_type": "natural", "stimulus_name": "amu_pl_ilo_BAZA_2006C_C0423.wav", "time_elapsed": 136365, "response_time": 3032, "answer": "b", "correct": false, "trial_index": 40}, {"a_template_type": "natural", "b_template_type": "synthetic", "stimulus_type": "natural", "stimulus_name": "amu_pl_ilo_BAZA_2006A_zbitki_A0263.wav", "time_elapsed": 151829, "response_time": 3682, "answer": "a", "correct": true, "trial_index": 46}, {"a_template_type": "synthetic", "b_template_type": "natural", "stimulus_type": "synthetic", "stimulus_name": "amu_pl_ilo_BAZA_2006C_C0359.wav", "time_elapsed": 162227, "response_time": 2799, "answer": "b", "correct": false, "trial_index": 52}, {"a_template_type": "synthetic", "b_template_type": "natural", "stimulus_type": "synthetic", "stimulus_name": "amu_pl_ilo_BAZA_2006C_C0023.wav", "time_elapsed": 173471, "response_time": 2731, "answer": "b", "correct": false, "trial_index": 58}, {"a_template_type": "natural", "b_template_type": "synthetic", "stimulus_type": "natural", "stimulus_name": "amu_pl_ilo_BAZA_2006D_D1118.wav", "time_elapsed": 184357, "response_time": 2526, "answer": "a", "correct": true, "trial_index": 64}, {"a_template_type": "synthetic", "b_template_type": "natural", "stimulus_type": "natural", "stimulus_name": "amu_pl_ilo_BAZA_2006D_D0023.wav", "time_elapsed": 201138, "response_time": 6100, "answer": "b", "correct": true, "trial_index": 70}, {"a_template_type": "synthetic", "b_template_type": "natural", "stimulus_type": "natural", "stimulus_name": "amu_pl_ilo_BAZA_2006B_B0108.wav", "time_elapsed": 213696, "response_time": 3687, "answer": "b", "correct": true, "trial_index": 76}, {"a_template_type": "synthetic", "b_template_type": "natural", "stimulus_type": "synthetic", "stimulus_name": "amu_pl_ilo_BAZA_2006D_D1164.wav", "time_elapsed": 230588, "response_time": 4853, "answer": "a", "correct": true, "trial_index": 82}], "mos": [{"stimulus_type": "natural", "stimulus_name": "amu_pl_ilo_BAZA_2006C_C0659.wav", "time_elapsed": 24271, "response_time": 6199, "answer": 3, "trial_index": 3}, {"stimulus_type": "natural", "stimulus_name": "amu_pl_ilo_BAZA_2006C_C0420.wav", "time_elapsed": 32545, "response_time": 6758, "answer": 5, "trial_index": 5}, {"stimulus_type": "synthetic", "stimulus_name": "amu_pl_ilo_BAZA_2006E_E1138.wav", "time_elapsed": 39468, "response_time": 5407, "answer": 2, "trial_index": 7}, {"stimulus_type": "synthetic", "stimulus_name": "amu_pl_ilo_BAZA_2006E_E0860.wav", "time_elapsed": 44131, "response_time": 3152, "answer": 1, "trial_index": 9}, {"stimulus_type": "natural", "stimulus_name": "amu_pl_ilo_BAZA_2006C_C0059.wav", "time_elapsed": 51014, "response_time": 5377, "answer": 4, "trial_index": 11}, {"stimulus_type": "synthetic", "stimulus_name": "amu_pl_ilo_BAZA_2006C_C0268.wav", "time_elapsed": 54919, "response_time": 2395, "answer": 1, "trial_index": 13}, {"stimulus_type": "synthetic", "stimulus_name": "amu_pl_ilo_BAZA_2006D_D1136.wav", "time_elapsed": 61132, "response_time": 4705, "answer": 1, "trial_index": 15}, {"stimulus_type": "natural", "stimulus_name": "amu_pl_ilo_BAZA_2006E_E1227.wav", "time_elapsed": 66798, "response_time": 4154, "answer": 5, "trial_index": 17}, {"stimulus_type": "synthetic", "stimulus_name": "amu_pl_ilo_BAZA_2006C_C0256.wav", "time_elapsed": 71418, "response_time": 3112, "answer": 2, "trial_index": 19}, {"stimulus_type": "natural", "stimulus_name": "amu_pl_ilo_BAZA_2006E_E1128.wav", "time_elapsed": 76593, "response_time": 3665, "answer": 2, "trial_index": 21}]}, {"_id": {"$oid": "5fb58e132d8500a4d92999d0"}, "created_at": {"$date": 1605733907372}, "abx": [{"a_template_type": "synthetic", "b_template_type": "natural", "stimulus_type": "natural", "stimulus_name": "amu_pl_ilo_BAZA_2006D_D1042.wav", "time_elapsed": 137125, "response_time": 2739, "answer": "b", "correct": true, "trial_index": 28}, {"a_template_type": "natural", "b_template_type": "synthetic", "stimulus_type": "synthetic", "stimulus_name": "amu_pl_ilo_BAZA_2006B_B0088.wav", "time_elapsed": 152595, "response_time": 7342, "answer": "b", "correct": true, "trial_index": 34}, {"a_template_type": "synthetic", "b_template_type": "natural", "stimulus_type": "natural", "stimulus_name": "amu_pl_ilo_BAZA_2006C_C0659.wav", "time_elapsed": 162419, "response_time": 2645, "answer": "a", "correct": false, "trial_index": 40}, {"a_template_type": "natural", "b_template_type": "synthetic", "stimulus_type": "synthetic", "stimulus_name": "amu_pl_ilo_BAZA_2006C_C0142.wav", "time_elapsed": 177193, "response_time": 5936, "answer": "a", "correct": false, "trial_index": 46}, {"a_template_type": "synthetic", "b_template_type": "natural", "stimulus_type": "natural", "stimulus_name": "amu_pl_ilo_BAZA_2006C_C0221.wav", "time_elapsed": 189146, "response_time": 3361, "answer": "b", "correct": true, "trial_index": 52}, {"a_template_type": "synthetic", "b_template_type": "natural", "stimulus_type": "synthetic", "stimulus_name": "amu_pl_ilo_BAZA_2006C_C0551.wav", "time_elapsed": 200814, "response_time": 3037, "answer": "a", "correct": true, "trial_index": 58}, {"a_template_type": "natural", "b_template_type": "synthetic", "stimulus_type": "natural", "stimulus_name": "amu_pl_ilo_BAZA_2006C_C0294.wav", "time_elapsed": 212593, "response_time": 2934, "answer": "b", "correct": false, "trial_index": 64}, {"a_template_type": "synthetic", "b_template_type": "natural", "stimulus_type": "synthetic", "stimulus_name": "amu_pl_ilo_BAZA_2006C_C0423.wav", "time_elapsed": 223222, "response_time": 2425, "answer": "b", "correct": false, "trial_index": 70}, {"a_template_type": "synthetic", "b_template_type": "natural", "stimulus_type": "synthetic", "stimulus_name": "amu_pl_ilo_BAZA_2006E_E1360.wav", "time_elapsed": 234890, "response_time": 2150, "answer": "a", "correct": true, "trial_index": 76}, {"a_template_type": "synthetic", "b_template_type": "natural", "stimulus_type": "synthetic", "stimulus_name": "amu_pl_ilo_BAZA_2006C_C0464.wav", "time_elapsed": 244316, "response_time": 2122, "answer": "a", "correct": true, "trial_index": 82}], "mos": [{"stimulus_type": "synthetic", "stimulus_name": "amu_pl_ilo_BAZA_2006E_E0860.wav", "time_elapsed": 56112, "response_time": 9383, "answer": 1, "trial_index": 3}, {"stimulus_type": "synthetic", "stimulus_name": "amu_pl_ilo_BAZA_2006B_B0031.wav", "time_elapsed": 60524, "response_time": 2900, "answer": 1, "trial_index": 5}, {"stimulus_type": "synthetic", "stimulus_name": "amu_pl_ilo_BAZA_2006B_B0061.wav", "time_elapsed": 65262, "response_time": 3227, "answer": 1, "trial_index": 7}, {"stimulus_type": "synthetic", "stimulus_name": "amu_pl_ilo_BAZA_2006C_C0189.wav", "time_elapsed": 69221, "response_time": 2452, "answer": 1, "trial_index": 9}, {"stimulus_type": "natural", "stimulus_name": "amu_pl_ilo_BAZA_2006A_zbitki_A0194.wav", "time_elapsed": 72677, "response_time": 1946, "answer": 2, "trial_index": 11}, {"stimulus_type": "natural", "stimulus_name": "amu_pl_ilo_BAZA_2006E_E1227.wav", "time_elapsed": 80215, "response_time": 6029, "answer": 3, "trial_index": 13}, {"stimulus_type": "natural", "stimulus_name": "amu_pl_ilo_BAZA_2006E_E1304.wav", "time_elapsed": 85026, "response_time": 3303, "answer": 4, "trial_index": 15}, {"stimulus_type": "natural", "stimulus_name": "amu_pl_ilo_BAZA_2006C_C0258.wav", "time_elapsed": 89750, "response_time": 3219, "answer": 5, "trial_index": 17}, {"stimulus_type": "synthetic", "stimulus_name": "amu_pl_ilo_BAZA_2006C_C0281.wav", "time_elapsed": 97719, "response_time": 6458, "answer": 3, "trial_index": 19}, {"stimulus_type": "natural", "stimulus_name": "amu_pl_ilo_BAZA_2006C_C0286.wav", "time_elapsed": 103000, "response_time": 3769, "answer": 5, "trial_index": 21}]}, {"_id": {"$oid": "5fb591312d8500a4d92999d1"}, "created_at": {"$date": 1605734705255}, "abx": [{"a_template_type": "synthetic", "b_template_type": "natural", "stimulus_type": "synthetic", "stimulus_name": "amu_pl_ilo_BAZA_2006B_B0108.wav", "time_elapsed": 166538, "response_time": 3007, "answer": "a", "correct": true, "trial_index": 28}, {"a_template_type": "synthetic", "b_template_type": "natural", "stimulus_type": "natural", "stimulus_name": "amu_pl_ilo_BAZA_2006C_C0234.wav", "time_elapsed": 178101, "response_time": 2587, "answer": "b", "correct": true, "trial_index": 34}, {"a_template_type": "natural", "b_template_type": "synthetic", "stimulus_type": "synthetic", "stimulus_name": "amu_pl_ilo_BAZA_2006A_zbitki_A0173.wav", "time_elapsed": 194246, "response_time": 3944, "answer": "a", "correct": false, "trial_index": 40}, {"a_template_type": "synthetic", "b_template_type": "natural", "stimulus_type": "natural", "stimulus_name": "amu_pl_ilo_BAZA_2006A_zbitki_A0104.wav", "time_elapsed": 207417, "response_time": 3398, "answer": "a", "correct": false, "trial_index": 46}, {"a_template_type": "synthetic", "b_template_type": "natural", "stimulus_type": "natural", "stimulus_name": "amu_pl_ilo_BAZA_2006C_C0536.wav", "time_elapsed": 217652, "response_time": 2368, "answer": "b", "correct": true, "trial_index": 52}, {"a_template_type": "natural", "b_template_type": "synthetic", "stimulus_type": "synthetic", "stimulus_name": "amu_pl_ilo_BAZA_2006C_C0574.wav", "time_elapsed": 228614, "response_time": 2624, "answer": "b", "correct": true, "trial_index": 58}, {"a_template_type": "natural", "b_template_type": "synthetic", "stimulus_type": "natural", "stimulus_name": "amu_pl_ilo_BAZA_2006C_C0420.wav", "time_elapsed": 236996, "response_time": 1343, "answer": "b", "correct": false, "trial_index": 64}, {"a_template_type": "synthetic", "b_template_type": "natural", "stimulus_type": "synthetic", "stimulus_name": "amu_pl_ilo_BAZA_2006D_D1165.wav", "time_elapsed": 247464, "response_time": 1841, "answer": "a", "correct": true, "trial_index": 70}, {"a_template_type": "natural", "b_template_type": "synthetic", "stimulus_type": "natural", "stimulus_name": "amu_pl_ilo_BAZA_2006D_D0056.wav", "time_elapsed": 256427, "response_time": 1659, "answer": "a", "correct": true, "trial_index": 76}, {"a_template_type": "synthetic", "b_template_type": "natural", "stimulus_type": "natural", "stimulus_name": "amu_pl_ilo_BAZA_2006A_zbitki_A0300.wav", "time_elapsed": 273271, "response_time": 5448, "answer": "a", "correct": false, "trial_index": 82}], "mos": [{"stimulus_type": "synthetic", "stimulus_name": "amu_pl_ilo_BAZA_2006C_C0184.wav", "time_elapsed": 86799, "response_time": 6917, "answer": 1, "trial_index": 3}, {"stimulus_type": "natural", "stimulus_name": "amu_pl_ilo_BAZA_2006E_E1179a.wav", "time_elapsed": 93512, "response_time": 5203, "answer": 1, "trial_index": 5}, {"stimulus_type": "synthetic", "stimulus_name": "amu_pl_ilo_BAZA_2006C_C0143.wav", "time_elapsed": 98910, "response_time": 3884, "answer": 2, "trial_index": 7}, {"stimulus_type": "synthetic", "stimulus_name": "amu_pl_ilo_BAZA_2006E_E0978b.wav", "time_elapsed": 106777, "response_time": 6358, "answer": 2, "trial_index": 9}, {"stimulus_type": "natural", "stimulus_name": "amu_pl_ilo_BAZA_2006E_E1334.wav", "time_elapsed": 112146, "response_time": 3855, "answer": 3, "trial_index": 11}, {"stimulus_type": "natural", "stimulus_name": "amu_pl_ilo_BAZA_2006A_zbitki_A0213.wav", "time_elapsed": 117429, "response_time": 3765, "answer": 3, "trial_index": 13}, {"stimulus_type": "natural", "stimulus_name": "amu_pl_ilo_BAZA_2006C_C0575.wav", "time_elapsed": 122257, "response_time": 3319, "answer": 4, "trial_index": 15}, {"stimulus_type": "synthetic", "stimulus_name": "amu_pl_ilo_BAZA_2006C_C0604.wav", "time_elapsed": 126799, "response_time": 3025, "answer": 4, "trial_index": 17}, {"stimulus_type": "synthetic", "stimulus_name": "amu_pl_ilo_BAZA_2006E_E0968.wav", "time_elapsed": 132521, "response_time": 4208, "answer": 3, "trial_index": 19}, {"stimulus_type": "natural", "stimulus_name": "amu_pl_ilo_BAZA_2006A_zbitki_A0141.wav", "time_elapsed": 141761, "response_time": 7731, "answer": 4, "trial_index": 21}]}, {"_id": {"$oid": "5fb61a402d8500a4d92999d2"}, "created_at": {"$date": 1605769792147}, "abx": [{"a_template_type": "synthetic", "b_template_type": "natural", "stimulus_type": "synthetic", "stimulus_name": "amu_pl_ilo_BAZA_2006A_zbitki_A0173.wav", "time_elapsed": 157206, "response_time": 5552, "answer": "b", "correct": false, "trial_index": 28}, {"a_template_type": "natural", "b_template_type": "synthetic", "stimulus_type": "natural", "stimulus_name": "amu_pl_ilo_BAZA_2006C_C0319.wav", "time_elapsed": 169272, "response_time": 2967, "answer": "a", "correct": true, "trial_index": 34}, {"a_template_type": "synthetic", "b_template_type": "natural", "stimulus_type": "natural", "stimulus_name": "amu_pl_ilo_BAZA_2006C_C0401.wav", "time_elapsed": 180890, "response_time": 3276, "answer": "a", "correct": false, "trial_index": 40}, {"a_template_type": "natural", "b_template_type": "synthetic", "stimulus_type": "natural", "stimulus_name": "amu_pl_ilo_BAZA_2006A_zbitki_A0166.wav", "time_elapsed": 192355, "response_time": 2259, "answer": "b", "correct": false, "trial_index": 46}, {"a_template_type": "natural", "b_template_type": "synthetic", "stimulus_type": "synthetic", "stimulus_name": "amu_pl_ilo_BAZA_2006D_D0091.wav", "time_elapsed": 208547, "response_time": 3823, "answer": "b", "correct": true, "trial_index": 52}, {"a_template_type": "synthetic", "b_template_type": "natural", "stimulus_type": "natural", "stimulus_name": "amu_pl_ilo_BAZA_2006C_C0500.wav", "time_elapsed": 217175, "response_time": 1421, "answer": "b", "correct": true, "trial_index": 58}, {"a_template_type": "natural", "b_template_type": "synthetic", "stimulus_type": "natural", "stimulus_name": "amu_pl_ilo_BAZA_2006C_C0469.wav", "time_elapsed": 228023, "response_time": 2165, "answer": "b", "correct": false, "trial_index": 64}, {"a_template_type": "natural", "b_template_type": "synthetic", "stimulus_type": "natural", "stimulus_name": "amu_pl_ilo_BAZA_2006C_C0261.wav", "time_elapsed": 238007, "response_time": 1928, "answer": "b", "correct": false, "trial_index": 70}, {"a_template_type": "natural", "b_template_type": "synthetic", "stimulus_type": "synthetic", "stimulus_name": "amu_pl_ilo_BAZA_2006B_B0032.wav", "time_elapsed": 249344, "response_time": 2666, "answer": "b", "correct": true, "trial_index": 76}, {"a_template_type": "synthetic", "b_template_type": "natural", "stimulus_type": "synthetic", "stimulus_name": "amu_pl_ilo_BAZA_2006A_zbitki_A0342.wav", "time_elapsed": 263871, "response_time": 3313, "answer": "a", "correct": true, "trial_index": 82}], "mos": [{"stimulus_type": "natural", "stimulus_name": "amu_pl_ilo_BAZA_2006E_E1044.wav", "time_elapsed": 40532, "response_time": 12474, "answer": 2, "trial_index": 3}, {"stimulus_type": "synthetic", "stimulus_name": "amu_pl_ilo_BAZA_2006D_D0021.wav", "time_elapsed": 44844, "response_time": 2787, "answer": 2, "trial_index": 5}, {"stimulus_type": "synthetic", "stimulus_name": "amu_pl_ilo_BAZA_2006B_B0025.wav", "time_elapsed": 51400, "response_time": 5037, "answer": 2, "trial_index": 7}, {"stimulus_type": "natural", "stimulus_name": "amu_pl_ilo_BAZA_2006D_D1042.wav", "time_elapsed": 56305, "response_time": 3371, "answer": 2, "trial_index": 9}, {"stimulus_type": "natural", "stimulus_name": "amu_pl_ilo_BAZA_2006C_C0434.wav", "time_elapsed": 60740, "response_time": 2904, "answer": 2, "trial_index": 11}, {"stimulus_type": "synthetic", "stimulus_name": "amu_pl_ilo_BAZA_2006A_zbitki_A0153.wav", "time_elapsed": 65253, "response_time": 2959, "answer": 2, "trial_index": 13}, {"stimulus_type": "synthetic", "stimulus_name": "amu_pl_ilo_BAZA_2006E_E0948.wav", "time_elapsed": 71872, "response_time": 5090, "answer": 3, "trial_index": 15}, {"stimulus_type": "synthetic", "stimulus_name": "amu_pl_ilo_BAZA_2006C_C0261.wav", "time_elapsed": 76309, "response_time": 2903, "answer": 2, "trial_index": 17}, {"stimulus_type": "natural", "stimulus_name": "amu_pl_ilo_BAZA_2006C_C0216.wav", "time_elapsed": 91981, "response_time": 14132, "answer": 2, "trial_index": 19}, {"stimulus_type": "natural", "stimulus_name": "amu_pl_ilo_BAZA_2006D_D0023.wav", "time_elapsed": 99500, "response_time": 6000, "answer": 3, "trial_index": 21}]}, {"_id": {"$oid": "5fb6211f2d8500a4d92999d3"}, "created_at": {"$date": 1605771551207}, "abx": [{"a_template_type": "natural", "b_template_type": "synthetic", "stimulus_type": "synthetic", "stimulus_name": "amu_pl_ilo_BAZA_2006C_C0281.wav", "time_elapsed": 165903, "response_time": 2418, "answer": "a", "correct": false, "trial_index": 28}, {"a_template_type": "natural", "b_template_type": "synthetic", "stimulus_type": "natural", "stimulus_name": "amu_pl_ilo_BAZA_2006A_zbitki_A0104.wav", "time_elapsed": 179530, "response_time": 3837, "answer": "b", "correct": false, "trial_index": 34}, {"a_template_type": "synthetic", "b_template_type": "natural", "stimulus_type": "synthetic", "stimulus_name": "amu_pl_ilo_BAZA_2006C_C0390.wav", "time_elapsed": 190046, "response_time": 2004, "answer": "b", "correct": false, "trial_index": 40}, {"a_template_type": "synthetic", "b_template_type": "natural", "stimulus_type": "natural", "stimulus_name": "amu_pl_ilo_BAZA_2006E_E1338.wav", "time_elapsed": 205541, "response_time": 3697, "answer": "b", "correct": true, "trial_index": 46}, {"a_template_type": "synthetic", "b_template_type": "natural", "stimulus_type": "natural", "stimulus_name": "amu_pl_ilo_BAZA_2006E_E1244.wav", "time_elapsed": 220942, "response_time": 4587, "answer": "a", "correct": false, "trial_index": 52}, {"a_template_type": "synthetic", "b_template_type": "natural", "stimulus_type": "synthetic", "stimulus_name": "amu_pl_ilo_BAZA_2006A_zbitki_A0136.wav", "time_elapsed": 235468, "response_time": 3710, "answer": "b", "correct": false, "trial_index": 58}, {"a_template_type": "natural", "b_template_type": "synthetic", "stimulus_type": "natural", "stimulus_name": "amu_pl_ilo_BAZA_2006A_zbitki_A0106.wav", "time_elapsed": 244877, "response_time": 1537, "answer": "b", "correct": false, "trial_index": 64}, {"a_template_type": "natural", "b_template_type": "synthetic", "stimulus_type": "natural", "stimulus_name": "amu_pl_ilo_BAZA_2006E_E1070.wav", "time_elapsed": 257078, "response_time": 2571, "answer": "b", "correct": false, "trial_index": 70}, {"a_template_type": "synthetic", "b_template_type": "natural", "stimulus_type": "natural", "stimulus_name": "amu_pl_ilo_BAZA_2006D_D0100.wav", "time_elapsed": 271641, "response_time": 3874, "answer": "a", "correct": false, "trial_index": 76}, {"a_template_type": "synthetic", "b_template_type": "natural", "stimulus_type": "natural", "stimulus_name": "amu_pl_ilo_BAZA_2006C_C0162.wav", "time_elapsed": 286141, "response_time": 5916, "answer": "b", "correct": true, "trial_index": 82}], "mos": [{"stimulus_type": "synthetic", "stimulus_name": "amu_pl_ilo_BAZA_2006C_C0221.wav", "time_elapsed": 77281, "response_time": 4293, "answer": 3, "trial_index": 3}, {"stimulus_type": "natural", "stimulus_name": "amu_pl_ilo_BAZA_2006C_C0536.wav", "time_elapsed": 81627, "response_time": 2832, "answer": 4, "trial_index": 5}, {"stimulus_type": "synthetic", "stimulus_name": "amu_pl_ilo_BAZA_2006C_C0183.wav", "time_elapsed": 86548, "response_time": 3412, "answer": 4, "trial_index": 7}, {"stimulus_type": "natural", "stimulus_name": "amu_pl_ilo_BAZA_2006D_D0007.wav", "time_elapsed": 92970, "response_time": 4916, "answer": 5, "trial_index": 9}, {"stimulus_type": "natural", "stimulus_name": "amu_pl_ilo_BAZA_2006A_zbitki_A0173.wav", "time_elapsed": 99131, "response_time": 4651, "answer": 5, "trial_index": 11}, {"stimulus_type": "natural", "stimulus_name": "amu_pl_ilo_BAZA_2006C_C0162.wav", "time_elapsed": 103024, "response_time": 2376, "answer": 5, "trial_index": 13}, {"stimulus_type": "synthetic", "stimulus_name": "amu_pl_ilo_BAZA_2006D_D0091.wav", "time_elapsed": 110623, "response_time": 6092, "answer": 4, "trial_index": 15}, {"stimulus_type": "synthetic", "stimulus_name": "amu_pl_ilo_BAZA_2006C_C0464.wav", "time_elapsed": 114135, "response_time": 1999, "answer": 4, "trial_index": 17}, {"stimulus_type": "synthetic", "stimulus_name": "amu_pl_ilo_BAZA_2006E_E1186.wav", "time_elapsed": 120556, "response_time": 4908, "answer": 3, "trial_index": 19}, {"stimulus_type": "natural", "stimulus_name": "amu_pl_ilo_BAZA_2006A_zbitki_A0115.wav", "time_elapsed": 126006, "response_time": 3938, "answer": 3, "trial_index": 21}]}, {"_id": {"$oid": "5fb6235c2d8500a4d92999d4"}, "created_at": {"$date": 1605772124252}, "abx": [{"a_template_type": "natural", "b_template_type": "synthetic", "stimulus_type": "natural", "stimulus_name": "amu_pl_ilo_BAZA_2006E_E1144.wav", "time_elapsed": 116761, "response_time": 3307, "answer": "a", "correct": true, "trial_index": 28}, {"a_template_type": "natural", "b_template_type": "synthetic", "stimulus_type": "natural", "stimulus_name": "amu_pl_ilo_BAZA_2006C_C0206.wav", "time_elapsed": 130637, "response_time": 4297, "answer": "b", "correct": false, "trial_index": 34}, {"a_template_type": "synthetic", "b_template_type": "natural", "stimulus_type": "synthetic", "stimulus_name": "amu_pl_ilo_BAZA_2006C_C0671.wav", "time_elapsed": 145863, "response_time": 6206, "answer": "a", "correct": true, "trial_index": 40}, {"a_template_type": "natural", "b_template_type": "synthetic", "stimulus_type": "natural", "stimulus_name": "amu_pl_ilo_BAZA_2006E_E1158.wav", "time_elapsed": 162608, "response_time": 4668, "answer": "b", "correct": false, "trial_index": 46}, {"a_template_type": "synthetic", "b_template_type": "natural", "stimulus_type": "synthetic", "stimulus_name": "amu_pl_ilo_BAZA_2006C_C0097.wav", "time_elapsed": 173141, "response_time": 2767, "answer": "a", "correct": true, "trial_index": 52}, {"a_template_type": "natural", "b_template_type": "synthetic", "stimulus_type": "natural", "stimulus_name": "amu_pl_ilo_BAZA_2006C_C0149.wav", "time_elapsed": 183099, "response_time": 2445, "answer": "b", "correct": false, "trial_index": 58}, {"a_template_type": "synthetic", "b_template_type": "natural", "stimulus_type": "natural", "stimulus_name": "amu_pl_ilo_BAZA_2006A_zbitki_A0342.wav", "time_elapsed": 198266, "response_time": 4027, "answer": "a", "correct": false, "trial_index": 64}, {"a_template_type": "natural", "b_template_type": "synthetic", "stimulus_type": "synthetic", "stimulus_name": "amu_pl_ilo_BAZA_2006D_D0023.wav", "time_elapsed": 211654, "response_time": 2870, "answer": "b", "correct": true, "trial_index": 70}, {"a_template_type": "natural", "b_template_type": "synthetic", "stimulus_type": "synthetic", "stimulus_name": "amu_pl_ilo_BAZA_2006C_C0189.wav", "time_elapsed": 221717, "response_time": 1799, "answer": "b", "correct": true, "trial_index": 76}, {"a_template_type": "synthetic", "b_template_type": "natural", "stimulus_type": "synthetic", "stimulus_name": "amu_pl_ilo_BAZA_2006C_C0574.wav", "time_elapsed": 232453, "response_time": 2374, "answer": "b", "correct": false, "trial_index": 82}], "mos": [{"stimulus_type": "synthetic", "stimulus_name": "amu_pl_ilo_BAZA_2006E_E1396.wav", "time_elapsed": 40496, "response_time": 3754, "answer": 1, "trial_index": 3}, {"stimulus_type": "natural", "stimulus_name": "amu_pl_ilo_BAZA_2006A_zbitki_A0139.wav", "time_elapsed": 46799, "response_time": 4778, "answer": 2, "trial_index": 5}, {"stimulus_type": "synthetic", "stimulus_name": "amu_pl_ilo_BAZA_2006C_C0286.wav", "time_elapsed": 50758, "response_time": 2439, "answer": 1, "trial_index": 7}, {"stimulus_type": "synthetic", "stimulus_name": "amu_pl_ilo_BAZA_2006C_C0256.wav", "time_elapsed": 54239, "response_time": 1965, "answer": 1, "trial_index": 9}, {"stimulus_type": "natural", "stimulus_name": "amu_pl_ilo_BAZA_2006D_D0051.wav", "time_elapsed": 58901, "response_time": 3143, "answer": 1, "trial_index": 11}, {"stimulus_type": "natural", "stimulus_name": "amu_pl_ilo_BAZA_2006E_E0968.wav", "time_elapsed": 63973, "response_time": 3543, "answer": 3, "trial_index": 13}, {"stimulus_type": "natural", "stimulus_name": "amu_pl_ilo_BAZA_2006D_D0069.wav", "time_elapsed": 68689, "response_time": 3189, "answer": 2, "trial_index": 15}, {"stimulus_type": "synthetic", "stimulus_name": "amu_pl_ilo_BAZA_2006C_C0393.wav", "time_elapsed": 72607, "response_time": 2387, "answer": 1, "trial_index": 17}, {"stimulus_type": "natural", "stimulus_name": "amu_pl_ilo_BAZA_2006C_C0441.wav", "time_elapsed": 76296, "response_time": 2162, "answer": 2, "trial_index": 19}, {"stimulus_type": "synthetic", "stimulus_name": "amu_pl_ilo_BAZA_2006E_E0961.wav", "time_elapsed": 80466, "response_time": 2649, "answer": 1, "trial_index": 21}]}, {"_id": {"$oid": "5fb6238a2d8500a4d92999d5"}, "created_at": {"$date": 1605772170830}, "abx": [{"a_template_type": "natural", "b_template_type": "synthetic", "stimulus_type": "natural", "stimulus_name": "amu_pl_ilo_BAZA_2006D_D0023.wav", "time_elapsed": 105264, "response_time": 3591, "answer": "a", "correct": true, "trial_index": 28}, {"a_template_type": "synthetic", "b_template_type": "natural", "stimulus_type": "natural", "stimulus_name": "amu_pl_ilo_BAZA_2006C_C0469.wav", "time_elapsed": 117824, "response_time": 3908, "answer": "b", "correct": true, "trial_index": 34}, {"a_template_type": "natural", "b_template_type": "synthetic", "stimulus_type": "synthetic", "stimulus_name": "amu_pl_ilo_BAZA_2006B_B0031.wav", "time_elapsed": 129328, "response_time": 3857, "answer": "a", "correct": false, "trial_index": 40}, {"a_template_type": "synthetic", "b_template_type": "natural", "stimulus_type": "natural", "stimulus_name": "amu_pl_ilo_BAZA_2006D_D1140.wav", "time_elapsed": 136688, "response_time": 785, "answer": "b", "correct": true, "trial_index": 46}, {"a_template_type": "natural", "b_template_type": "synthetic", "stimulus_type": "natural", "stimulus_name": "amu_pl_ilo_BAZA_2006E_E0968.wav", "time_elapsed": 152616, "response_time": 4128, "answer": "a", "correct": true, "trial_index": 52}, {"a_template_type": "synthetic", "b_template_type": "natural", "stimulus_type": "synthetic", "stimulus_name": "amu_pl_ilo_BAZA_2006D_D0098a.wav", "time_elapsed": 164128, "response_time": 2246, "answer": "a", "correct": true, "trial_index": 58}, {"a_template_type": "natural", "b_template_type": "synthetic", "stimulus_type": "natural", "stimulus_name": "amu_pl_ilo_BAZA_2006C_C0574.wav", "time_elapsed": 174264, "response_time": 1784, "answer": "a", "correct": true, "trial_index": 64}, {"a_template_type": "synthetic", "b_template_type": "natural", "stimulus_type": "natural", "stimulus_name": "amu_pl_ilo_BAZA_2006C_C0173.wav", "time_elapsed": 183839, "response_time": 1186, "answer": "b", "correct": true, "trial_index": 70}, {"a_template_type": "natural", "b_template_type": "synthetic", "stimulus_type": "synthetic", "stimulus_name": "amu_pl_ilo_BAZA_2006B_B0061.wav", "time_elapsed": 193784, "response_time": 2085, "answer": "b", "correct": true, "trial_index": 76}, {"a_template_type": "synthetic", "b_template_type": "natural", "stimulus_type": "synthetic", "stimulus_name": "amu_pl_ilo_BAZA_2006C_C0261.wav", "time_elapsed": 202975, "response_time": 1236, "answer": "b", "correct": false, "trial_index": 82}], "mos": [{"stimulus_type": "natural", "stimulus_name": "amu_pl_ilo_BAZA_2006C_C0519.wav", "time_elapsed": 31840, "response_time": 17047, "answer": 4, "trial_index": 3}, {"stimulus_type": "synthetic", "stimulus_name": "amu_pl_ilo_BAZA_2006D_D0051.wav", "time_elapsed": 36879, "response_time": 3522, "answer": 4, "trial_index": 5}, {"stimulus_type": "natural", "stimulus_name": "amu_pl_ilo_BAZA_2006C_C0420.wav", "time_elapsed": 43000, "response_time": 4582, "answer": 5, "trial_index": 7}, {"stimulus_type": "synthetic", "stimulus_name": "amu_pl_ilo_BAZA_2006C_C0246.wav", "time_elapsed": 49487, "response_time": 4968, "answer": 4, "trial_index": 9}, {"stimulus_type": "natural", "stimulus_name": "amu_pl_ilo_BAZA_2006E_E0948.wav", "time_elapsed": 55591, "response_time": 4563, "answer": 5, "trial_index": 11}, {"stimulus_type": "synthetic", "stimulus_name": "amu_pl_ilo_BAZA_2006C_C0390.wav", "time_elapsed": 59639, "response_time": 2508, "answer": 3, "trial_index": 13}, {"stimulus_type": "natural", "stimulus_name": "amu_pl_ilo_BAZA_2006E_E1341.wav", "time_elapsed": 64647, "response_time": 3491, "answer": 5, "trial_index": 15}, {"stimulus_type": "natural", "stimulus_name": "amu_pl_ilo_BAZA_2006C_C0479.wav", "time_elapsed": 68231, "response_time": 2056, "answer": 3, "trial_index": 17}, {"stimulus_type": "synthetic", "stimulus_name": "amu_pl_ilo_BAZA_2006D_D1147.wav", "time_elapsed": 70887, "response_time": 1109, "answer": 3, "trial_index": 19}, {"stimulus_type": "synthetic", "stimulus_name": "amu_pl_ilo_BAZA_2006E_E0890.wav", "time_elapsed": 75719, "response_time": 3315, "answer": 4, "trial_index": 21}]}, {"_id": {"$oid": "5fb624272d8500a4d92999d6"}, "created_at": {"$date": 1605772327794}, "abx": [{"a_template_type": "synthetic", "b_template_type": "natural", "stimulus_type": "natural", "stimulus_name": "amu_pl_ilo_BAZA_2006E_E1149.wav", "time_elapsed": 127692, "response_time": 5488, "answer": "b", "correct": true, "trial_index": 28}, {"a_template_type": "natural", "b_template_type": "synthetic", "stimulus_type": "synthetic", "stimulus_name": "amu_pl_ilo_BAZA_2006A_zbitki_A0025.wav", "time_elapsed": 146524, "response_time": 5850, "answer": "b", "correct": true, "trial_index": 34}, {"a_template_type": "natural", "b_template_type": "synthetic", "stimulus_type": "synthetic", "stimulus_name": "amu_pl_ilo_BAZA_2006C_C0234.wav", "time_elapsed": 161283, "response_time": 5749, "answer": "b", "correct": true, "trial_index": 40}, {"a_template_type": "synthetic", "b_template_type": "natural", "stimulus_type": "synthetic", "stimulus_name": "amu_pl_ilo_BAZA_2006C_C0567.wav", "time_elapsed": 175516, "response_time": 1892, "answer": "b", "correct": false, "trial_index": 46}, {"a_template_type": "synthetic", "b_template_type": "natural", "stimulus_type": "natural", "stimulus_name": "amu_pl_ilo_BAZA_2006C_C0184.wav", "time_elapsed": 185893, "response_time": 1898, "answer": "b", "correct": true, "trial_index": 52}, {"a_template_type": "natural", "b_template_type": "synthetic", "stimulus_type": "natural", "stimulus_name": "amu_pl_ilo_BAZA_2006C_C0214.wav", "time_elapsed": 196652, "response_time": 1878, "answer": "a", "correct": true, "trial_index": 58}, {"a_template_type": "natural", "b_template_type": "synthetic", "stimulus_type": "natural", "stimulus_name": "amu_pl_ilo_BAZA_2006E_E1278.wav", "time_elapsed": 208060, "response_time": 895, "answer": "a", "correct": true, "trial_index": 64}, {"a_template_type": "synthetic", "b_template_type": "natural", "stimulus_type": "synthetic", "stimulus_name": "amu_pl_ilo_BAZA_2006E_E0920.wav", "time_elapsed": 217293, "response_time": 108, "answer": "b", "correct": false, "trial_index": 70}, {"a_template_type": "natural", "b_template_type": "synthetic", "stimulus_type": "synthetic", "stimulus_name": "amu_pl_ilo_BAZA_2006C_C0246.wav", "time_elapsed": 226788, "response_time": 764, "answer": "a", "correct": false, "trial_index": 76}, {"a_template_type": "natural", "b_template_type": "synthetic", "stimulus_type": "synthetic", "stimulus_name": "amu_pl_ilo_BAZA_2006C_C0162.wav", "time_elapsed": 235444, "response_time": 40, "answer": "b", "correct": true, "trial_index": 82}], "mos": [{"stimulus_type": "natural", "stimulus_name": "amu_pl_ilo_BAZA_2006E_E1138.wav", "time_elapsed": 52261, "response_time": 12846, "answer": 3, "trial_index": 3}, {"stimulus_type": "synthetic", "stimulus_name": "amu_pl_ilo_BAZA_2006A_zbitki_A0326.wav", "time_elapsed": 56828, "response_time": 3033, "answer": 2, "trial_index": 5}, {"stimulus_type": "synthetic", "stimulus_name": "amu_pl_ilo_BAZA_2006C_C0183.wav", "time_elapsed": 61684, "response_time": 3331, "answer": 4, "trial_index": 7}, {"stimulus_type": "synthetic", "stimulus_name": "amu_pl_ilo_BAZA_2006C_C0083.wav", "time_elapsed": 65364, "response_time": 2131, "answer": 4, "trial_index": 9}, {"stimulus_type": "synthetic", "stimulus_name": "amu_pl_ilo_BAZA_2006A_zbitki_A0300.wav", "time_elapsed": 70892, "response_time": 3988, "answer": 3, "trial_index": 11}, {"stimulus_type": "synthetic", "stimulus_name": "amu_pl_ilo_BAZA_2006C_C0281.wav", "time_elapsed": 75133, "response_time": 2707, "answer": 2, "trial_index": 13}, {"stimulus_type": "natural", "stimulus_name": "amu_pl_ilo_BAZA_2006C_C0208.wav", "time_elapsed": 78628, "response_time": 1964, "answer": 3, "trial_index": 15}, {"stimulus_type": "natural", "stimulus_name": "amu_pl_ilo_BAZA_2006A_zbitki_A0136.wav", "time_elapsed": 82988, "response_time": 2814, "answer": 3, "trial_index": 17}, {"stimulus_type": "natural", "stimulus_name": "amu_pl_ilo_BAZA_2006A_zbitki_A0244.wav", "time_elapsed": 88101, "response_time": 3576, "answer": 4, "trial_index": 19}, {"stimulus_type": "natural", "stimulus_name": "amu_pl_ilo_BAZA_2006C_C0221.wav", "time_elapsed": 91876, "response_time": 2262, "answer": 4, "trial_index": 21}]}, {"_id": {"$oid": "5fb624cb2d8500a4d92999d7"}, "created_at": {"$date": 1605772491901}, "abx": [{"a_template_type": "synthetic", "b_template_type": "natural", "stimulus_type": "synthetic", "stimulus_name": "amu_pl_ilo_BAZA_2006E_E0920.wav", "time_elapsed": 505948, "response_time": 2542, "answer": "b", "correct": false, "trial_index": 28}, {"a_template_type": "natural", "b_template_type": "synthetic", "stimulus_type": "synthetic", "stimulus_name": "amu_pl_ilo_BAZA_2006E_E1144.wav", "time_elapsed": 517502, "response_time": 2284, "answer": "b", "correct": true, "trial_index": 34}, {"a_template_type": "natural", "b_template_type": "synthetic", "stimulus_type": "natural", "stimulus_name": "amu_pl_ilo_BAZA_2006A_zbitki_A0326.wav", "time_elapsed": 530435, "response_time": 2708, "answer": "a", "correct": true, "trial_index": 40}, {"a_template_type": "synthetic", "b_template_type": "natural", "stimulus_type": "natural", "stimulus_name": "amu_pl_ilo_BAZA_2006C_C0479.wav", "time_elapsed": 540653, "response_time": 2025, "answer": "b", "correct": true, "trial_index": 46}, {"a_template_type": "synthetic", "b_template_type": "natural", "stimulus_type": "natural", "stimulus_name": "amu_pl_ilo_BAZA_2006D_D1158.wav", "time_elapsed": 552880, "response_time": 2348, "answer": "b", "correct": true, "trial_index": 52}, {"a_template_type": "synthetic", "b_template_type": "natural", "stimulus_type": "natural", "stimulus_name": "amu_pl_ilo_BAZA_2006E_E0961.wav", "time_elapsed": 565936, "response_time": 3070, "answer": "b", "correct": true, "trial_index": 58}, {"a_template_type": "natural", "b_template_type": "synthetic", "stimulus_type": "synthetic", "stimulus_name": "amu_pl_ilo_BAZA_2006A_zbitki_A0153.wav", "time_elapsed": 576755, "response_time": 2225, "answer": "b", "correct": true, "trial_index": 64}, {"a_template_type": "natural", "b_template_type": "synthetic", "stimulus_type": "natural", "stimulus_name": "amu_pl_ilo_BAZA_2006C_C0149.wav", "time_elapsed": 585501, "response_time": 1211, "answer": "b", "correct": false, "trial_index": 70}, {"a_template_type": "synthetic", "b_template_type": "natural", "stimulus_type": "synthetic", "stimulus_name": "amu_pl_ilo_BAZA_2006E_E1044.wav", "time_elapsed": 598816, "response_time": 2889, "answer": "b", "correct": false, "trial_index": 76}, {"a_template_type": "natural", "b_template_type": "synthetic", "stimulus_type": "synthetic", "stimulus_name": "amu_pl_ilo_BAZA_2006C_C0233.wav", "time_elapsed": 611265, "response_time": 2777, "answer": "a", "correct": false, "trial_index": 82}], "mos": [{"stimulus_type": "synthetic", "stimulus_name": "amu_pl_ilo_BAZA_2006E_E1244.wav", "time_elapsed": 122765, "response_time": 17396, "answer": 2, "trial_index": 3}, {"stimulus_type": "synthetic", "stimulus_name": "amu_pl_ilo_BAZA_2006C_C0003.wav", "time_elapsed": 128892, "response_time": 4622, "answer": 2, "trial_index": 5}, {"stimulus_type": "natural", "stimulus_name": "amu_pl_ilo_BAZA_2006E_E1166.wav", "time_elapsed": 136266, "response_time": 5869, "answer": 4, "trial_index": 7}, {"stimulus_type": "synthetic", "stimulus_name": "amu_pl_ilo_BAZA_2006C_C0268.wav", "time_elapsed": 140350, "response_time": 2580, "answer": 1, "trial_index": 9}, {"stimulus_type": "natural", "stimulus_name": "amu_pl_ilo_BAZA_2006C_C0608.wav", "time_elapsed": 144419, "response_time": 2563, "answer": 3, "trial_index": 11}, {"stimulus_type": "natural", "stimulus_name": "amu_pl_ilo_BAZA_2006A_zbitki_A0141.wav", "time_elapsed": 150983, "response_time": 5046, "answer": 2, "trial_index": 13}, {"stimulus_type": "natural", "stimulus_name": "amu_pl_ilo_BAZA_2006A_zbitki_A0198.wav", "time_elapsed": 156787, "response_time": 4298, "answer": 3, "trial_index": 15}, {"stimulus_type": "synthetic", "stimulus_name": "amu_pl_ilo_BAZA_2006E_E1014.wav", "time_elapsed": 162919, "response_time": 4626, "answer": 3, "trial_index": 17}, {"stimulus_type": "natural", "stimulus_name": "amu_pl_ilo_BAZA_2006C_C0015.wav", "time_elapsed": 167747, "response_time": 3321, "answer": 4, "trial_index": 19}, {"stimulus_type": "synthetic", "stimulus_name": "amu_pl_ilo_BAZA_2006D_D0051.wav", "time_elapsed": 472908, "response_time": 303656, "answer": 3, "trial_index": 21}]}, {"_id": {"$oid": "5fb625ca2d8500a4d92999d8"}, "created_at": {"$date": 1605772746826}, "abx": [{"a_template_type": "natural", "b_template_type": "synthetic", "stimulus_type": "natural", "stimulus_name": "amu_pl_ilo_BAZA_2006C_C0051.wav", "time_elapsed": 195324, "response_time": 4315, "answer": "a", "correct": true, "trial_index": 28}, {"a_template_type": "synthetic", "b_template_type": "natural", "stimulus_type": "synthetic", "stimulus_name": "amu_pl_ilo_BAZA_2006A_zbitki_A0050.wav", "time_elapsed": 209614, "response_time": 3438, "answer": "a", "correct": true, "trial_index": 34}, {"a_template_type": "synthetic", "b_template_type": "natural", "stimulus_type": "synthetic", "stimulus_name": "amu_pl_ilo_BAZA_2006C_C0306.wav", "time_elapsed": 221686, "response_time": 2030, "answer": "a", "correct": true, "trial_index": 40}, {"a_template_type": "natural", "b_template_type": "synthetic", "stimulus_type": "natural", "stimulus_name": "amu_pl_ilo_BAZA_2006E_E1149.wav", "time_elapsed": 233758, "response_time": 1708, "answer": "b", "correct": false, "trial_index": 46}, {"a_template_type": "natural", "b_template_type": "synthetic", "stimulus_type": "natural", "stimulus_name": "amu_pl_ilo_BAZA_2006C_C0519.wav", "time_elapsed": 243424, "response_time": 1808, "answer": "b", "correct": false, "trial_index": 52}, {"a_template_type": "natural", "b_template_type": "synthetic", "stimulus_type": "natural", "stimulus_name": "amu_pl_ilo_BAZA_2006A_zbitki_A0151.wav", "time_elapsed": 255898, "response_time": 2362, "answer": "a", "correct": true, "trial_index": 58}, {"a_template_type": "synthetic", "b_template_type": "natural", "stimulus_type": "synthetic", "stimulus_name": "amu_pl_ilo_BAZA_2006C_C0580.wav", "time_elapsed": 265961, "response_time": 2133, "answer": "b", "correct": false, "trial_index": 64}, {"a_template_type": "natural", "b_template_type": "synthetic", "stimulus_type": "natural", "stimulus_name": "amu_pl_ilo_BAZA_2006C_C0003.wav", "time_elapsed": 274815, "response_time": 1704, "answer": "b", "correct": false, "trial_index": 70}, {"a_template_type": "natural", "b_template_type": "synthetic", "stimulus_type": "natural", "stimulus_name": "amu_pl_ilo_BAZA_2006B_B0088.wav", "time_elapsed": 284885, "response_time": 1886, "answer": "b", "correct": false, "trial_index": 76}, {"a_template_type": "natural", "b_template_type": "synthetic", "stimulus_type": "synthetic", "stimulus_name": "amu_pl_ilo_BAZA_2006B_B0025.wav", "time_elapsed": 295544, "response_time": 1491, "answer": "b", "correct": true, "trial_index": 82}], "mos": [{"stimulus_type": "natural", "stimulus_name": "amu_pl_ilo_BAZA_2006A_zbitki_A0263.wav", "time_elapsed": 54249, "response_time": 13557, "answer": 3, "trial_index": 3}, {"stimulus_type": "synthetic", "stimulus_name": "amu_pl_ilo_BAZA_2006C_C0256.wav", "time_elapsed": 58874, "response_time": 3102, "answer": 2, "trial_index": 5}, {"stimulus_type": "synthetic", "stimulus_name": "amu_pl_ilo_BAZA_2006D_D1075.wav", "time_elapsed": 68331, "response_time": 7935, "answer": 2, "trial_index": 7}, {"stimulus_type": "natural", "stimulus_name": "amu_pl_ilo_BAZA_2006C_C0110.wav", "time_elapsed": 72614, "response_time": 2756, "answer": 3, "trial_index": 9}, {"stimulus_type": "synthetic", "stimulus_name": "amu_pl_ilo_BAZA_2006E_E0996.wav", "time_elapsed": 77372, "response_time": 3219, "answer": 2, "trial_index": 11}, {"stimulus_type": "natural", "stimulus_name": "amu_pl_ilo_BAZA_2006C_C0469.wav", "time_elapsed": 84633, "response_time": 5717, "answer": 3, "trial_index": 13}, {"stimulus_type": "synthetic", "stimulus_name": "amu_pl_ilo_BAZA_2006E_E0961.wav", "time_elapsed": 91680, "response_time": 5512, "answer": 2, "trial_index": 15}, {"stimulus_type": "natural", "stimulus_name": "amu_pl_ilo_BAZA_2006B_B0031.wav", "time_elapsed": 95096, "response_time": 1885, "answer": 3, "trial_index": 17}, {"stimulus_type": "synthetic", "stimulus_name": "amu_pl_ilo_BAZA_2006B_B0015.wav", "time_elapsed": 99038, "response_time": 2419, "answer": 2, "trial_index": 19}, {"stimulus_type": "natural", "stimulus_name": "amu_pl_ilo_BAZA_2006A_zbitki_A0104.wav", "time_elapsed": 103697, "response_time": 3127, "answer": 3, "trial_index": 21}]}, {"_id": {"$oid": "5fb626bf2d8500a4d92999d9"}, "created_at": {"$date": 1605772991549}, "abx": [{"a_template_type": "natural", "b_template_type": "synthetic", "stimulus_type": "synthetic", "stimulus_name": "amu_pl_ilo_BAZA_2006C_C0160.wav", "time_elapsed": 771483, "response_time": 3460, "answer": "b", "correct": true, "trial_index": 28}, {"a_template_type": "natural", "b_template_type": "synthetic", "stimulus_type": "natural", "stimulus_name": "amu_pl_ilo_BAZA_2006C_C0574.wav", "time_elapsed": 783925, "response_time": 4109, "answer": "a", "correct": true, "trial_index": 34}, {"a_template_type": "natural", "b_template_type": "synthetic", "stimulus_type": "synthetic", "stimulus_name": "amu_pl_ilo_BAZA_2006A_zbitki_A0300.wav", "time_elapsed": 798949, "response_time": 3621, "answer": "b", "correct": true, "trial_index": 40}, {"a_template_type": "synthetic", "b_template_type": "natural", "stimulus_type": "natural", "stimulus_name": "amu_pl_ilo_BAZA_2006B_B0088.wav", "time_elapsed": 809747, "response_time": 2814, "answer": "b", "correct": true, "trial_index": 46}, {"a_template_type": "synthetic", "b_template_type": "natural", "stimulus_type": "natural", "stimulus_name": "amu_pl_ilo_BAZA_2006E_E1227.wav", "time_elapsed": 824771, "response_time": 3642, "answer": "a", "correct": false, "trial_index": 52}, {"a_template_type": "synthetic", "b_template_type": "natural", "stimulus_type": "natural", "stimulus_name": "amu_pl_ilo_BAZA_2006A_zbitki_A0353.wav", "time_elapsed": 840326, "response_time": 4699, "answer": "a", "correct": false, "trial_index": 58}, {"a_template_type": "synthetic", "b_template_type": "natural", "stimulus_type": "synthetic", "stimulus_name": "amu_pl_ilo_BAZA_2006E_E1132.wav", "time_elapsed": 851811, "response_time": 2231, "answer": "a", "correct": true, "trial_index": 64}, {"a_template_type": "natural", "b_template_type": "synthetic", "stimulus_type": "natural", "stimulus_name": "amu_pl_ilo_BAZA_2006C_C0390.wav", "time_elapsed": 862566, "response_time": 2196, "answer": "a", "correct": true, "trial_index": 70}, {"a_template_type": "natural", "b_template_type": "synthetic", "stimulus_type": "synthetic", "stimulus_name": "amu_pl_ilo_BAZA_2006E_E1144.wav", "time_elapsed": 874340, "response_time": 2523, "answer": "a", "correct": false, "trial_index": 76}, {"a_template_type": "natural", "b_template_type": "synthetic", "stimulus_type": "synthetic", "stimulus_name": "amu_pl_ilo_BAZA_2006A_zbitki_A0327.wav", "time_elapsed": 891449, "response_time": 4404, "answer": "a", "correct": false, "trial_index": 82}], "mos": [{"stimulus_type": "natural", "stimulus_name": "amu_pl_ilo_BAZA_2006A_zbitki_A0036.wav", "time_elapsed": 676124, "response_time": 9810, "answer": 3, "trial_index": 3}, {"stimulus_type": "synthetic", "stimulus_name": "amu_pl_ilo_BAZA_2006C_C0221.wav", "time_elapsed": 681604, "response_time": 3978, "answer": 5, "trial_index": 5}, {"stimulus_type": "natural", "stimulus_name": "amu_pl_ilo_BAZA_2006B_B0032.wav", "time_elapsed": 688548, "response_time": 5442, "answer": 1, "trial_index": 7}, {"stimulus_type": "natural", "stimulus_name": "amu_pl_ilo_BAZA_2006C_C0206.wav", "time_elapsed": 695003, "response_time": 4953, "answer": 5, "trial_index": 9}, {"stimulus_type": "synthetic", "stimulus_name": "amu_pl_ilo_BAZA_2006E_E1179a.wav", "time_elapsed": 703060, "response_time": 6555, "answer": 5, "trial_index": 11}, {"stimulus_type": "synthetic", "stimulus_name": "amu_pl_ilo_BAZA_2006A_zbitki_A0342.wav", "time_elapsed": 710812, "response_time": 6248, "answer": 4, "trial_index": 13}, {"stimulus_type": "synthetic", "stimulus_name": "amu_pl_ilo_BAZA_2006C_C0268.wav", "time_elapsed": 719054, "response_time": 6735, "answer": 3, "trial_index": 15}, {"stimulus_type": "natural", "stimulus_name": "amu_pl_ilo_BAZA_2006C_C0423.wav", "time_elapsed": 726187, "response_time": 5628, "answer": 5, "trial_index": 17}, {"stimulus_type": "synthetic", "stimulus_name": "amu_pl_ilo_BAZA_2006C_C0246.wav", "time_elapsed": 731252, "response_time": 3561, "answer": 5, "trial_index": 19}, {"stimulus_type": "natural", "stimulus_name": "amu_pl_ilo_BAZA_2006C_C0208.wav", "time_elapsed": 744222, "response_time": 11465, "answer": 4, "trial_index": 21}]}, {"_id": {"$oid": "5fb63af42d8500a4d92999da"}, "created_at": {"$date": 1605778164729}, "abx": [{"a_template_type": "natural", "b_template_type": "synthetic", "stimulus_type": "synthetic", "stimulus_name": "amu_pl_ilo_BAZA_2006A_zbitki_A0107.wav", "time_elapsed": 101495, "response_time": 5292, "answer": "b", "correct": true, "trial_index": 28}, {"a_template_type": "synthetic", "b_template_type": "natural", "stimulus_type": "synthetic", "stimulus_name": "amu_pl_ilo_BAZA_2006A_zbitki_A0173.wav", "time_elapsed": 121554, "response_time": 7733, "answer": "a", "correct": true, "trial_index": 34}, {"a_template_type": "synthetic", "b_template_type": "natural", "stimulus_type": "natural", "stimulus_name": "amu_pl_ilo_BAZA_2006E_E0961.wav", "time_elapsed": 134146, "response_time": 2648, "answer": "a", "correct": false, "trial_index": 40}, {"a_template_type": "synthetic", "b_template_type": "natural", "stimulus_type": "natural", "stimulus_name": "amu_pl_ilo_BAZA_2006B_B0108.wav", "time_elapsed": 145042, "response_time": 2097, "answer": "a", "correct": false, "trial_index": 46}, {"a_template_type": "synthetic", "b_template_type": "natural", "stimulus_type": "synthetic", "stimulus_name": "amu_pl_ilo_BAZA_2006C_C0604.wav", "time_elapsed": 156555, "response_time": 3036, "answer": "a", "correct": true, "trial_index": 52}, {"a_template_type": "natural", "b_template_type": "synthetic", "stimulus_type": "synthetic", "stimulus_name": "amu_pl_ilo_BAZA_2006C_C0059.wav", "time_elapsed": 167914, "response_time": 2757, "answer": "a", "correct": false, "trial_index": 58}, {"a_template_type": "natural", "b_template_type": "synthetic", "stimulus_type": "natural", "stimulus_name": "amu_pl_ilo_BAZA_2006E_E1044.wav", "time_elapsed": 181147, "response_time": 2849, "answer": "a", "correct": true, "trial_index": 64}, {"a_template_type": "synthetic", "b_template_type": "natural", "stimulus_type": "natural", "stimulus_name": "amu_pl_ilo_BAZA_2006E_E1014.wav", "time_elapsed": 196884, "response_time": 5762, "answer": "b", "correct": true, "trial_index": 70}, {"a_template_type": "synthetic", "b_template_type": "natural", "stimulus_type": "natural", "stimulus_name": "amu_pl_ilo_BAZA_2006E_E1278.wav", "time_elapsed": 210352, "response_time": 2914, "answer": "b", "correct": true, "trial_index": 76}, {"a_template_type": "natural", "b_template_type": "synthetic", "stimulus_type": "natural", "stimulus_name": "amu_pl_ilo_BAZA_2006C_C0380.wav", "time_elapsed": 220255, "response_time": 1878, "answer": "b", "correct": false, "trial_index": 82}], "mos": [{"stimulus_type": "natural", "stimulus_name": "amu_pl_ilo_BAZA_2006C_C0380.wav", "time_elapsed": 31278, "response_time": 13324, "answer": 2, "trial_index": 3}, {"stimulus_type": "synthetic", "stimulus_name": "amu_pl_ilo_BAZA_2006A_zbitki_A0249.wav", "time_elapsed": 36510, "response_time": 3726, "answer": 3, "trial_index": 5}, {"stimulus_type": "synthetic", "stimulus_name": "amu_pl_ilo_BAZA_2006C_C0359.wav", "time_elapsed": 39754, "response_time": 1737, "answer": 2, "trial_index": 7}, {"stimulus_type": "natural", "stimulus_name": "amu_pl_ilo_BAZA_2006C_C0500.wav", "time_elapsed": 43902, "response_time": 2643, "answer": 4, "trial_index": 9}, {"stimulus_type": "natural", "stimulus_name": "amu_pl_ilo_BAZA_2006C_C0162.wav", "time_elapsed": 49157, "response_time": 3749, "answer": 4, "trial_index": 11}, {"stimulus_type": "natural", "stimulus_name": "amu_pl_ilo_BAZA_2006C_C0313.wav", "time_